aX,aY,aZ,gX,gY,gZ
1.742,-0.240,1.453,-64.941,66.467,37.781
1.899,-0.315,2.011,-78.125,123.047,41.748
1.948,-0.289,2.613,-76.904,200.317,50.232
1.780,-0.023,2.995,-59.692,293.152,60.059
1.506,0.228,3.104,-2.686,396.301,45.654
1.132,0.321,2.872,97.473,487.244,-0.366
0.773,0.279,2.279,221.680,553.650,-57.922
0.524,0.292,1.607,332.275,589.111,-99.243
0.462,0.040,0.139,395.081,608.093,-114.685
0.305,-0.054,-0.673,365.784,596.863,-110.779
-0.306,0.062,-0.674,298.706,527.771,-72.754
-0.721,-0.127,-0.951,249.634,494.263,-28.992
-0.904,-0.177,-1.277,172.485,473.450,32.471
-0.956,0.283,-1.796,90.942,448.669,106.812
-0.947,0.669,-1.999,54.199,403.564,141.541
-0.825,0.915,-2.050,80.139,341.980,137.268
-0.578,0.938,-1.977,118.958,267.578,112.976
-0.437,0.873,-1.746,131.592,191.711,89.539
-0.453,0.777,-1.459,124.634,131.042,74.829
-0.452,0.733,-1.243,107.300,99.792,68.420
-0.414,0.749,-1.137,83.984,86.426,65.247
-0.363,0.762,-1.093,66.772,73.853,58.533
-0.361,0.739,-1.053,54.565,57.556,46.997
-0.369,0.694,-1.019,43.091,41.626,34.241
-0.353,0.645,-1.032,32.043,29.480,23.743
-0.323,0.607,-1.080,19.653,19.714,15.808
-0.299,0.585,-1.107,6.775,9.521,9.094
-0.253,0.562,-1.119,-2.380,-2.808,2.075
-0.196,0.529,-1.122,-7.141,-16.968,-5.798
-0.145,0.490,-1.112,-11.169,-33.020,-15.259
-0.078,0.444,-1.117,-18.250,-49.622,-25.940
-0.014,0.392,-1.088,-31.921,-66.711,-36.194
0.071,0.293,-1.036,-44.617,-81.726,-44.006
0.184,0.267,-1.022,-49.072,-92.896,-45.288
0.189,0.225,-1.024,-48.645,-101.624,-46.021
0.261,0.187,-0.970,-50.110,-110.107,-46.509
0.332,0.133,-0.893,-53.284,-117.126,-46.936
0.375,0.105,-0.841,-55.542,-120.728,-47.302
0.426,0.103,-0.828,-57.556,-121.460,-46.753
0.466,0.120,-0.820,-58.289,-122.009,-46.631
0.490,0.127,-0.812,-56.702,-124.573,-49.377
0.494,0.135,-0.805,-53.650,-128.601,-53.162
0.490,0.134,-0.786,-50.598,-132.690,-56.885
0.477,0.106,-0.748,-47.791,-136.108,-59.753
0.467,0.046,-0.711,-45.166,-136.902,-61.646
0.474,0.002,-0.677,-42.908,-136.047,-60.913
0.500,-0.022,-0.664,-40.894,-134.277,-56.702
0.539,-0.024,-0.675,-40.588,-131.958,-50.659
0.577,-0.009,-0.692,-42.053,-130.493,-43.762
0.608,0.002,-0.710,-42.725,-130.798,-37.537
0.623,0.012,-0.714,-43.701,-132.996,-33.020
0.643,0.026,-0.711,-44.067,-135.132,-29.663
0.664,0.027,-0.701,-43.884,-137.695,-27.710
0.677,0.038,-0.699,-42.786,-141.724,-25.940
0.700,0.062,-0.728,-40.771,-148.376,-25.024
0.712,0.086,-0.726,-36.499,-163.147,-25.452
0.718,0.121,-0.675,-26.611,-183.105,-28.687
0.722,0.107,-0.593,-15.747,-199.219,-37.598
0.761,0.080,-0.483,-11.169,-209.473,-47.607
0.771,0.034,-0.389,-10.559,-210.449,-61.584

1.135,-0.264,1.440,-31.006,171.204,71.472
1.210,-0.334,1.593,-16.052,244.629,82.397
1.131,-0.358,1.839,5.188,313.110,95.215
0.907,-0.355,1.854,43.335,379.028,108.521
0.893,-0.289,1.461,75.684,448.242,111.938
0.957,-0.036,1.031,84.778,505.188,111.633
0.930,0.235,0.713,70.251,528.381,114.563
0.584,0.516,0.294,50.964,531.677,94.482
0.320,0.658,-0.356,54.504,536.499,56.091
0.066,0.556,-1.071,78.857,527.832,4.944
-0.463,0.240,-1.426,102.295,487.488,-28.320
-0.227,0.188,-1.944,106.079,424.988,-37.476
-0.286,0.264,-2.177,101.379,354.248,-27.344
-0.523,0.206,-2.247,100.220,271.057,-15.015
-0.496,0.175,-2.228,83.862,206.482,-0.305
-0.378,0.235,-2.084,45.471,161.743,25.513
-0.236,0.319,-1.886,4.944,125.183,50.720
-0.067,0.381,-1.667,-20.813,90.210,65.247
0.066,0.450,-1.432,-32.532,54.749,67.871
0.146,0.494,-1.241,-31.250,21.423,61.829
0.210,0.496,-1.109,-25.574,-2.380,47.363
0.265,0.471,-1.042,-21.851,-18.066,29.846
0.307,0.412,-1.028,-18.433,-28.809,13.245
0.333,0.357,-1.020,-14.648,-38.818,0.854
0.365,0.307,-1.018,-9.460,-51.270,-7.812
0.381,0.250,-0.998,-3.052,-65.125,-16.235
0.426,0.202,-0.952,2.808,-79.346,-23.560
0.409,0.157,-0.895,5.920,-90.454,-31.128
0.455,0.085,-0.837,5.188,-95.581,-39.856
0.500,0.016,-0.786,4.944,-96.558,-45.288
0.535,-0.051,-0.737,3.296,-97.046,-46.814
0.572,-0.091,-0.720,1.221,-94.971,-43.457
0.606,-0.102,-0.748,-1.282,-91.431,-36.133
0.633,-0.086,-0.787,-4.333,-89.294,-27.039
0.642,-0.027,-0.819,-6.165,-89.172,-17.395
0.649,0.025,-0.829,-6.836,-92.468,-11.841
0.653,0.069,-0.858,-5.066,-99.243,-10.620
0.659,0.123,-0.878,-0.793,-108.582,-11.963
0.661,0.175,-0.884,4.578,-119.568,-16.479
0.654,0.196,-0.846,12.268,-132.019,-24.414
0.657,0.196,-0.777,20.630,-144.958,-35.095
0.672,0.154,-0.694,29.541,-156.494,-47.607
0.675,0.105,-0.621,37.048,-161.926,-56.091
0.685,0.045,-0.626,42.969,-164.001,-60.059
0.654,0.031,-0.616,42.236,-169.434,-59.753
0.623,0.027,-0.624,38.574,-173.096,-57.068
0.622,0.043,-0.662,34.180,-173.523,-53.589
0.683,0.087,-0.694,28.992,-176.392,-48.401
0.747,0.221,-0.664,24.048,-186.890,-44.739
0.782,0.207,-0.643,44.373,-194.946,-50.720
0.751,0.129,-0.446,54.810,-213.989,-59.082
0.700,0.081,-0.218,42.236,-229.431,-69.580
0.763,-0.044,-0.065,44.739,-215.149,-85.693
0.816,-0.129,0.038,32.532,-200.562,-95.520
0.897,-0.230,0.079,26.611,-181.091,-96.375
0.954,-0.271,0.090,14.954,-165.649,-86.243
0.994,-0.311,0.087,9.460,-152.222,-70.801
1.044,-0.288,0.090,4.639,-139.771,-51.941
1.056,-0.185,0.081,-3.357,-126.892,-35.583
1.046,-0.112,0.068,-13.062,-112.183,-25.879

1.249,-0.364,1.579,-135.010,132.507,66.895
1.260,-0.363,1.949,-146.912,245.178,72.571
1.443,-0.041,2.161,-127.258,373.535,78.308
1.157,-0.052,1.973,-90.759,493.591,89.966
1.065,-0.396,1.313,-84.839,605.164,73.853
0.989,-0.106,0.777,-115.662,684.021,57.434
0.823,0.228,-0.047,-107.727,705.994,50.842
0.491,0.386,-0.716,-72.083,658.203,2.380
0.136,0.396,-1.326,-12.268,570.190,-54.626
-0.163,0.336,-1.795,51.880,463.745,-97.778
-0.498,0.192,-2.081,117.188,347.900,-125.488
-0.790,-0.142,-2.140,180.176,230.530,-132.874
-0.854,-0.317,-1.983,206.543,140.625,-106.262
-0.774,-0.208,-1.719,193.970,89.172,-51.453
-0.525,0.049,-1.557,169.861,72.449,2.136
-0.390,0.271,-1.381,140.320,71.045,34.302
-0.268,0.356,-1.338,105.591,79.834,44.800
-0.120,0.428,-1.345,72.937,84.412,48.218
-0.055,0.479,-1.292,57.800,67.444,47.363
-0.016,0.475,-1.220,52.979,44.556,39.734
0.015,0.455,-1.138,45.898,25.940,31.250
0.062,0.450,-1.087,36.377,13.428,23.743
0.113,0.454,-1.080,27.039,6.226,16.479
0.153,0.464,-1.105,18.188,0.916,8.972
0.201,0.470,-1.145,12.634,-6.653,1.404
0.224,0.435,-1.148,10.071,-20.569,-6.836
0.252,0.384,-1.077,11.658,-39.551,-14.587
0.258,0.302,-0.987,11.414,-53.833,-21.118
0.264,0.234,-0.923,6.775,-59.814,-24.841
0.276,0.169,-0.893,3.723,-61.707,-25.269
0.287,0.113,-0.906,1.465,-62.317,-23.621
0.291,0.073,-0.953,-0.793,-62.317,-19.592
0.299,0.058,-0.999,-3.235,-64.209,-14.099
0.311,0.045,-1.036,-4.883,-69.580,-7.935
0.322,0.054,-1.066,-7.324,-76.294,-1.587
0.338,0.084,-1.078,-10.315,-83.496,6.287
0.370,0.112,-1.054,-11.353,-92.834,14.526
0.417,0.154,-0.972,-10.498,-103.210,19.653
0.469,0.179,-0.853,-6.714,-113.464,22.583
0.527,0.198,-0.729,-3.723,-118.835,19.043
0.562,0.195,-0.625,-2.686,-115.112,11.108
0.600,0.234,-0.583,-3.845,-105.408,2.136
0.651,0.206,-0.583,-5.859,-93.933,-8.850
0.673,0.187,-0.633,-6.836,-82.825,-16.663
0.674,0.183,-0.707,-9.583,-75.623,-19.897
0.650,0.177,-0.786,-13.794,-71.777,-21.118
0.614,0.185,-0.873,-19.226,-69.458,-20.264
0.605,0.207,-0.937,-24.292,-70.007,-18.738
0.603,0.216,-0.924,-24.170,-76.660,-18.188
0.615,0.220,-0.863,-19.043,-86.914,-19.165
0.642,0.198,-0.776,-12.146,-96.863,-24.719
0.678,0.155,-0.691,-4.883,-103.821,-30.334
0.694,0.118,-0.638,1.038,-106.995,-33.691
0.699,0.093,-0.611,4.578,-106.934,-35.400
0.710,0.070,-0.598,5.615,-104.675,-35.461
0.719,0.079,-0.621,3.906,-100.220,-33.142
0.767,0.095,-0.674,0.183,-95.886,-29.602
0.759,0.132,-0.755,-3.784,-95.886,-24.353
0.749,0.183,-0.800,-7.263,-99.854,-18.677
0.718,0.204,-0.822,-9.277,-107.544,-16.541

0.864,-0.363,1.651,-158.569,274.353,55.969
0.879,-0.314,1.640,-158.630,398.254,77.576
0.944,-0.073,1.359,-177.307,519.836,100.891
0.864,0.246,0.691,-206.909,633.240,108.459
0.692,0.412,-0.057,-232.300,708.801,80.811
0.403,0.362,-0.651,-235.168,722.778,23.071
0.230,0.117,-1.282,-200.439,675.476,-36.560
0.158,-0.167,-1.849,-142.151,575.073,-77.271
-0.057,-0.343,-2.288,-74.341,425.537,-85.327
-0.302,-0.328,-2.294,5.005,264.893,-72.510
-0.361,-0.410,-2.150,93.872,125.061,-63.293
-0.378,-0.463,-1.851,148.132,25.146,-42.908
-0.362,-0.382,-1.552,152.100,-21.851,-4.395
-0.207,-0.179,-1.256,124.756,-27.283,36.072
0.002,0.039,-1.017,91.003,-9.155,63.354
0.202,0.207,-0.919,60.974,15.991,73.669
0.384,0.336,-0.935,42.175,30.945,70.190
0.474,0.411,-0.977,36.621,28.748,56.335
0.473,0.422,-1.022,34.851,18.738,38.147
0.428,0.407,-1.063,28.442,8.728,20.081
0.404,0.381,-1.115,19.226,1.892,5.920
0.406,0.353,-1.153,11.536,-4.944,-4.211
0.408,0.329,-1.173,6.226,-14.465,-11.902
0.411,0.292,-1.141,2.808,-26.245,-18.066
0.431,0.251,-1.064,4.517,-39.368,-22.522
0.453,0.203,-0.960,9.033,-52.002,-25.879
0.476,0.147,-0.835,13.428,-61.157,-28.381
0.495,0.095,-0.742,14.954,-63.538,-28.870
0.503,0.054,-0.705,12.939,-57.312,-27.344
0.532,0.012,-0.718,9.033,-46.936,-23.560
0.567,0.015,-0.749,6.287,-37.109,-15.686
0.595,0.039,-0.799,3.052,-29.846,-7.446
0.611,0.061,-0.859,-0.549,-24.475,-1.831
0.630,0.104,-0.906,-3.418,-22.339,1.343
0.628,0.125,-0.940,-3.418,-23.682,2.747
0.630,0.148,-0.951,-3.723,-27.893,2.930
0.620,0.169,-0.932,-3.418,-32.593,2.075
0.623,0.174,-0.899,-1.221,-36.621,-0.977
0.613,0.196,-0.858,1.160,-38.940,-4.944
0.617,0.175,-0.790,2.869,-40.161,-12.268
0.631,0.138,-0.771,5.859,-38.757,-19.409
0.630,0.102,-0.742,7.202,-35.950,-23.071
0.626,0.061,-0.725,8.545,-33.203,-24.719
0.624,0.036,-0.731,9.094,-29.358,-23.682
0.618,0.029,-0.760,7.324,-25.513,-19.531
0.613,0.046,-0.801,4.944,-22.095,-14.221
0.611,0.078,-0.834,2.319,-20.447,-9.766
0.609,0.103,-0.854,0.000,-19.226,-7.629
0.598,0.098,-0.853,-1.343,-19.531,-7.996
0.604,0.097,-0.834,0.000,-21.973,-8.545
0.628,0.105,-0.800,2.563,-24.231,-8.057
0.645,0.106,-0.763,3.540,-25.146,-8.972
0.657,0.114,-0.739,3.601,-24.414,-9.827
0.670,0.114,-0.735,3.845,-21.912,-10.376
0.668,0.092,-0.725,3.113,-18.677,-11.047
0.663,0.075,-0.728,1.709,-15.015,-10.681
0.665,0.071,-0.734,-0.427,-11.169,-8.789
0.653,0.074,-0.747,-2.258,-7.385,-7.141
0.652,0.074,-0.767,-4.089,-4.272,-6.104
0.661,0.070,-0.792,-4.211,-2.258,-4.395

-0.409,-0.662,-2.100,-202.942,377.075,-39.001
-0.442,-0.635,-2.013,-136.719,236.328,-27.344
-0.467,-0.772,-1.750,-12.695,105.530,-25.818
-0.328,-0.811,-1.452,110.046,10.803,-6.897
-0.144,-0.479,-1.036,150.269,-39.795,36.560
0.017,-0.186,-0.747,134.094,-38.086,69.824
0.234,0.029,-0.685,99.609,-3.479,79.956
0.388,0.111,-0.750,65.002,32.898,76.721
0.451,0.192,-0.884,39.124,54.199,68.604
0.485,0.221,-1.033,24.902,58.350,57.434
0.496,0.257,-1.112,18.188,47.058,45.349
0.466,0.266,-1.182,18.311,28.748,29.724
0.435,0.213,-1.227,25.208,10.315,11.780
0.424,0.177,-1.215,28.442,-8.789,-0.183
0.435,0.163,-1.148,28.442,-26.794,-5.615
0.450,0.154,-1.052,26.794,-39.917,-9.766
0.476,0.148,-0.954,26.245,-48.462,-14.221
0.506,0.130,-0.866,28.931,-54.871,-19.653
0.541,0.083,-0.788,33.508,-59.265,-24.963
0.553,0.033,-0.693,34.790,-59.326,-27.893
0.573,0.006,-0.664,29.724,-50.781,-26.184
0.594,-0.011,-0.708,21.362,-35.583,-21.301
0.606,-0.002,-0.779,13.794,-21.240,-13.977
0.625,0.034,-0.848,9.827,-12.329,-6.470
0.639,0.071,-0.900,8.606,-10.010,-2.625
0.656,0.105,-0.924,7.690,-11.658,-2.686
0.663,0.127,-0.930,8.301,-15.564,-5.005
0.667,0.130,-0.929,10.315,-20.081,-9.399
0.667,0.127,-0.911,12.817,-25.635,-14.465
0.664,0.111,-0.885,14.771,-31.372,-19.714
0.650,0.083,-0.857,15.930,-36.011,-24.414
0.638,0.061,-0.828,15.808,-38.635,-27.710
0.631,0.039,-0.806,15.137,-38.940,-28.748
0.625,0.018,-0.806,13.123,-36.560,-27.771
0.628,0.004,-0.838,9.583,-33.020,-24.902
0.623,0.010,-0.855,6.470,-31.555,-20.630
0.618,0.043,-0.848,5.554,-32.410,-17.334
0.612,0.043,-0.832,6.226,-34.424,-17.700
0.618,0.018,-0.833,7.629,-36.133,-19.592
0.625,0.013,-0.844,10.315,-38.025,-19.104
0.635,0.032,-0.848,13.245,-41.565,-17.395
0.634,0.039,-0.855,15.808,-45.349,-16.785
0.636,0.023,-0.870,17.761,-49.316,-17.639
0.688,0.032,-0.915,19.714,-55.359,-17.334
0.729,0.077,-0.953,21.851,-65.430,-17.456
0.718,0.132,-0.984,26.184,-80.139,-21.362
0.664,0.140,-1.053,32.898,-96.802,-29.602
0.616,0.142,-1.080,38.025,-115.112,-34.790
0.597,0.126,-1.070,48.584,-136.108,-36.865
0.619,0.115,-1.017,60.547,-161.865,-36.987
0.634,0.114,-0.933,68.542,-187.927,-36.499
0.645,0.143,-0.807,68.176,-209.473,-34.973
0.659,0.132,-0.698,64.819,-223.938,-34.851
0.635,0.077,-0.610,59.326,-231.445,-36.743
0.673,0.078,-0.510,49.805,-229.065,-36.194
0.686,0.129,-0.453,46.082,-225.891,-37.354
0.721,0.120,-0.405,46.021,-221.802,-45.166
0.761,0.099,-0.380,46.753,-216.003,-51.819
0.797,0.072,-0.387,46.936,-213.013,-56.946
0.804,0.047,-0.404,49.072,-214.478,-60.242

0.531,0.050,1.058,-145.264,437.378,61.951
0.575,-0.165,0.894,-76.050,542.664,53.467
0.591,-0.014,0.520,-69.641,615.417,51.697
0.520,-0.004,-0.185,-66.589,676.636,45.837
0.688,0.085,-0.596,-105.347,708.740,45.837
0.484,0.035,-1.041,-124.512,677.551,31.860
0.311,0.092,-1.348,-104.553,599.060,8.057
0.216,0.052,-1.596,-68.176,498.962,-19.775
0.172,0.023,-1.819,-33.325,397.217,-40.833
0.106,-0.126,-1.955,13.306,285.522,-58.655
-0.005,-0.249,-1.844,65.002,172.241,-61.829
-0.107,-0.295,-1.632,104.858,82.092,-46.143
-0.133,-0.245,-1.468,116.638,29.419,-17.944
-0.057,-0.102,-1.361,107.544,9.216,11.108
0.074,0.073,-1.284,91.858,4.944,33.142
0.191,0.181,-1.242,78.613,2.808,42.847
0.323,0.253,-1.225,68.542,-4.578,43.579
0.450,0.286,-1.119,59.143,-16.541,37.964
0.488,0.324,-0.952,44.556,-23.804,27.893
0.528,0.333,-0.910,26.245,-19.897,17.151
0.551,0.324,-0.931,11.353,-11.292,6.104
0.562,0.292,-0.970,0.366,-7.019,-4.456
0.554,0.231,-1.011,-6.653,-7.996,-14.282
0.522,0.184,-1.002,-8.728,-13.794,-20.447
0.498,0.135,-0.950,-6.348,-22.949,-23.987
0.487,0.075,-0.896,-2.686,-29.907,-26.001
0.500,0.031,-0.842,0.000,-32.166,-24.719
0.506,0.015,-0.802,-0.122,-29.724,-22.217
0.542,0.008,-0.798,0.732,-24.231,-17.456
0.587,0.019,-0.818,2.869,-19.226,-11.658
0.616,0.046,-0.839,4.211,-17.090,-6.592
0.634,0.071,-0.852,4.761,-15.808,-4.578
0.643,0.091,-0.863,3.418,-13.977,-5.554
0.655,0.087,-0.883,1.221,-11.719,-7.751
0.629,0.085,-0.906,-0.061,-10.986,-9.216
0.599,0.078,-0.926,-1.160,-13.428,-10.376
0.572,0.067,-0.942,0.366,-18.616,-10.864
0.543,0.059,-0.954,2.930,-26.001,-11.108
0.509,0.054,-0.963,5.676,-34.424,-11.108
0.478,0.043,-0.959,6.165,-42.786,-11.536
0.471,0.064,-0.958,6.348,-50.476,-10.681
0.481,0.072,-0.939,7.202,-57.983,-9.399
0.506,0.099,-0.904,8.118,-65.857,-9.888
0.529,0.098,-0.848,10.071,-70.923,-10.681
0.553,0.141,-0.785,12.146,-72.876,-11.719
0.581,0.103,-0.790,12.146,-70.068,-17.090
0.612,0.102,-0.772,9.583,-66.711,-23.193
0.623,0.097,-0.787,11.841,-65.491,-23.315
0.626,0.080,-0.831,15.564,-65.002,-22.095
0.631,0.096,-0.846,14.282,-65.002,-19.958
0.634,0.102,-0.840,12.878,-67.078,-17.578
0.644,0.115,-0.811,10.254,-70.068,-16.602
0.661,0.116,-0.777,8.057,-72.021,-16.968
0.682,0.106,-0.734,6.531,-72.937,-18.799
0.703,0.101,-0.698,5.737,-72.449,-21.118
0.743,0.074,-0.663,7.019,-70.984,-22.522
0.786,0.048,-0.639,9.155,-69.031,-22.034
0.805,0.051,-0.623,11.047,-66.223,-19.592
0.790,0.050,-0.621,12.268,-62.439,-17.151
0.784,0.068,-0.643,11.841,-57.373,-16.052

0.475,0.551,1.638,-137.939,387.268,49.011
0.586,0.198,1.417,-50.171,534.851,19.104
0.615,-0.240,0.620,0.854,623.535,-3.296
0.721,-0.033,-0.070,-1.587,698.181,-9.521
0.726,-0.194,-0.305,-39.856,722.839,-1.404
0.578,-0.234,-1.089,-36.743,701.965,-1.648
0.470,-0.030,-1.519,-49.255,636.230,7.446
0.288,0.161,-1.875,-57.678,535.583,0.366
0.163,0.261,-2.067,-45.959,414.429,-22.827
0.016,0.226,-2.081,-9.460,283.447,-57.251
-0.139,-0.005,-1.940,52.856,162.109,-92.468
-0.210,-0.288,-1.680,101.929,65.247,-102.905
-0.266,-0.299,-1.410,115.540,6.042,-76.111
-0.275,-0.227,-1.190,108.582,-15.686,-38.330
-0.200,-0.143,-1.036,92.224,-8.667,-6.104
-0.066,-0.024,-0.984,67.139,13.367,18.738
0.062,0.065,-1.026,43.945,33.997,34.363
0.208,0.128,-1.095,32.410,36.560,40.833
0.340,0.207,-1.121,33.691,22.156,40.161
0.414,0.252,-1.090,37.109,0.244,33.325
0.448,0.287,-1.059,35.339,-17.273,22.522
0.491,0.298,-1.071,29.236,-28.931,12.512
0.508,0.306,-1.062,23.193,-37.964,5.127
0.505,0.306,-1.050,16.113,-46.143,-2.136
0.496,0.267,-1.031,9.033,-51.697,-9.766
0.473,0.203,-0.977,5.005,-57.068,-15.869
0.439,0.191,-0.875,3.662,-63.660,-19.470
0.425,0.124,-0.791,3.601,-64.270,-24.536
0.435,0.088,-0.753,3.418,-56.824,-26.917
0.461,0.040,-0.764,3.906,-47.791,-25.757
0.493,0.040,-0.797,4.272,-39.734,-22.217
0.543,-0.010,-0.832,5.432,-33.508,-17.029
0.571,0.013,-0.830,3.967,-29.663,-9.399
0.578,0.055,-0.820,-0.488,-26.367,-3.235
0.598,0.058,-0.846,-3.235,-20.569,-1.099
0.607,0.068,-0.871,-5.066,-15.381,1.526
0.596,0.081,-0.891,-7.568,-13.550,3.174
0.586,0.075,-0.907,-8.850,-13.550,3.723
0.575,0.087,-0.889,-8.850,-15.076,4.395
0.576,0.095,-0.882,-7.629,-17.517,4.395
0.579,0.088,-0.884,-5.859,-19.592,3.662
0.585,0.086,-0.882,-3.967,-22.949,3.479
0.588,0.098,-0.865,-1.709,-27.405,2.441
0.583,0.087,-0.846,1.709,-31.860,0.977
0.579,0.083,-0.841,3.662,-34.912,-0.610
0.577,0.069,-0.858,5.249,-36.926,-1.648
0.516,-0.063,-0.941,5.066,-39.246,-1.953
0.500,-0.030,-0.936,-6.287,-39.063,-1.099
0.540,0.142,-0.912,-16.663,-41.687,3.784
0.571,0.147,-0.907,-11.353,-49.377,3.113
0.576,0.166,-0.898,-3.296,-57.007,1.160
0.581,0.103,-0.944,1.953,-64.758,-0.427
0.609,0.089,-1.011,0.610,-71.838,-0.427
0.642,0.103,-1.090,-3.540,-82.886,3.235
0.641,0.164,-1.178,-7.935,-100.830,6.714
0.673,0.263,-1.215,-11.963,-122.681,7.446
0.664,0.314,-1.251,-11.597,-151.794,3.662
0.759,0.457,-1.164,-6.348,-188.110,-9.155
0.685,0.277,-1.149,4.700,-226.135,-37.048
0.565,0.194,-1.047,18.494,-274.597,-53.467

2.414,-0.024,0.986,-102.722,-6.287,15.869
2.755,0.158,1.562,-115.112,14.221,25.146
2.960,0.159,1.901,-108.582,71.716,22.156
2.940,0.072,2.161,-107.666,132.874,0.671
2.868,0.053,2.264,-106.323,197.388,-16.541
2.601,0.040,2.316,-106.201,256.836,-28.503
2.175,0.079,2.343,-114.746,322.144,-38.269
1.585,0.046,2.285,-121.765,395.813,-53.101
0.880,-0.119,2.079,-113.342,466.797,-74.951
0.187,-0.317,1.690,-89.417,522.583,-90.637
-0.517,-0.492,1.257,-58.228,551.331,-85.205
-1.110,-0.492,0.859,-34.241,561.401,-53.833
-1.607,-0.445,0.385,-25.391,567.688,-18.616
-2.012,-0.356,-0.190,-30.701,577.698,11.719
-2.265,-0.344,-0.781,-55.176,592.346,33.020
-2.615,-0.205,-1.277,-76.599,586.182,60.425
-2.967,0.019,-1.544,-78.430,536.316,80.994
-3.282,0.158,-1.849,-66.956,481.995,80.444
-3.470,0.200,-2.392,-50.110,430.481,68.787
-3.593,0.043,-3.993,-29.541,355.652,57.129
-2.766,0.338,-3.295,9.644,174.011,55.664
-2.010,0.073,-3.155,36.133,41.016,48.584
-1.334,0.115,-2.528,-6.104,-51.208,53.101
-0.702,0.231,-1.781,-23.193,-147.949,62.866
-0.215,0.243,-1.121,-23.437,-213.318,47.607
0.112,0.066,-0.596,-13.306,-248.779,14.160
0.289,-0.186,-0.193,5.005,-267.456,-18.372
0.397,-0.361,0.063,26.245,-266.968,-41.321
0.447,-0.467,0.129,40.283,-245.300,-56.824
0.439,-0.514,0.051,44.617,-210.144,-64.819
0.408,-0.512,-0.104,43.213,-173.645,-65.613
0.378,-0.468,-0.328,38.269,-142.334,-62.134
0.320,-0.388,-0.522,31.189,-120.117,-58.350
0.239,-0.328,-0.670,20.752,-101.501,-53.101
0.155,-0.313,-0.862,10.071,-90.271,-47.913
0.131,-0.237,-0.976,-3.540,-87.463,-33.203
0.144,-0.236,-0.969,-9.277,-95.947,-16.174
0.079,-0.234,-0.937,4.700,-118.042,-5.493
0.099,-0.106,-0.920,4.333,-129.578,11.169
0.188,0.049,-0.891,-3.296,-132.751,24.048
0.252,0.152,-0.872,-7.385,-137.085,26.428
0.330,0.190,-0.858,-7.324,-145.142,19.958
0.396,0.197,-0.845,-5.066,-156.799,9.644
0.440,0.205,-0.804,0.305,-172.119,-0.549
0.458,0.158,-0.744,7.874,-187.012,-10.498
0.484,0.100,-0.682,12.817,-195.557,-18.982
0.522,0.054,-0.630,11.292,-195.068,-23.437
0.573,0.024,-0.609,5.615,-189.148,-24.414
0.624,0.026,-0.598,-2.014,-182.739,-23.499
0.672,0.050,-0.575,-8.606,-180.298,-20.996
0.763,0.071,-0.548,-12.329,-183.777,-18.188
0.830,0.120,-0.484,-14.160,-191.528,-19.226
0.909,0.191,-0.380,-14.282,-198.608,-24.353
0.929,0.187,-0.292,-12.512,-201.050,-35.828
0.918,0.139,-0.199,-11.475,-197.266,-50.049
0.909,0.050,-0.164,-9.155,-188.965,-62.012
0.931,-0.079,-0.141,-5.798,-179.993,-70.679
0.944,-0.219,-0.095,-3.601,-172.668,-74.402
0.928,-0.351,-0.100,1.404,-169.250,-71.594
0.905,-0.449,-0.112,8.423,-169.861,-62.073

1.582,-0.294,1.035,-26.611,49.316,31.860
1.738,-0.271,1.315,-19.043,64.941,28.137
1.823,-0.291,1.633,-12.756,84.656,21.118
1.894,-0.330,1.871,-7.996,114.075,13.611
1.961,-0.405,1.999,-5.371,151.489,6.104
1.923,-0.502,2.083,-2.014,192.444,-2.197
1.881,-0.551,2.231,5.493,230.347,-7.996
1.772,-0.640,2.350,22.217,265.015,-9.888
1.531,-0.633,2.339,38.879,304.810,-5.920
1.155,-0.576,2.220,51.514,348.999,2.380
0.715,-0.549,1.930,63.416,393.677,15.564
0.291,-0.494,1.538,70.862,433.777,36.438
-0.123,-0.328,1.178,66.467,468.689,62.439
-0.523,-0.132,0.796,47.852,504.822,83.130
-0.864,0.037,0.394,20.752,541.687,97.107
-1.131,0.272,0.067,-6.653,568.359,104.492
-1.403,0.505,-0.267,-26.978,585.876,99.915
-1.702,0.583,-0.606,-33.386,592.285,79.529
-2.146,0.505,-0.982,-28.259,588.928,53.040
-2.857,0.317,-1.602,-25.513,587.830,33.447
-3.491,0.128,-2.566,-46.753,606.140,17.944
-3.828,-0.153,-3.669,-82.642,599.731,2.502
-3.659,-0.292,-4.000,-90.210,503.235,34.790
-3.129,-0.164,-4.000,-57.373,298.096,94.604
-2.179,0.240,-3.972,-17.456,62.866,122.009
-1.332,0.365,-2.684,16.541,-139.648,114.014
-0.627,0.367,-1.552,42.236,-262.451,94.360
-0.167,0.342,-0.658,41.504,-299.988,58.350
0.114,0.098,-0.224,28.076,-280.457,4.761
0.317,-0.146,0.030,19.470,-247.803,-33.691
0.400,-0.420,0.134,17.395,-212.769,-54.138
0.437,-0.548,0.126,13.977,-174.194,-52.917
0.469,-0.569,-0.001,7.874,-136.169,-42.786
0.497,-0.534,-0.158,6.042,-108.215,-31.982
0.508,-0.468,-0.307,9.399,-93.872,-23.010
0.510,-0.409,-0.415,17.456,-89.539,-17.090
0.506,-0.362,-0.488,26.733,-91.187,-13.672
0.503,-0.312,-0.547,34.058,-93.628,-11.108
0.498,-0.262,-0.602,38.635,-95.337,-8.362
0.505,-0.235,-0.674,40.222,-97.351,-6.165
0.479,-0.207,-0.708,39.368,-101.440,-2.747
0.455,-0.182,-0.719,35.583,-104.248,2.808
0.471,-0.142,-0.731,26.306,-100.525,10.376
0.513,-0.079,-0.730,15.259,-95.642,18.127
0.547,-0.021,-0.718,9.766,-93.933,23.621
0.574,0.038,-0.709,7.385,-92.957,25.574
0.610,0.073,-0.711,8.972,-92.590,23.621
0.656,0.103,-0.731,10.620,-91.675,20.020
0.710,0.137,-0.755,11.902,-92.651,15.137
0.751,0.145,-0.762,14.526,-96.741,8.606
0.789,0.149,-0.742,16.724,-101.440,1.587
0.814,0.134,-0.715,20.569,-106.934,-5.371
0.818,0.101,-0.693,23.010,-109.314,-11.841
0.832,0.060,-0.657,21.973,-108.459,-16.785
0.837,0.007,-0.626,19.653,-107.361,-18.738
0.855,-0.001,-0.584,14.160,-102.905,-17.761
0.866,-0.000,-0.571,5.066,-94.910,-15.808
0.861,-0.003,-0.538,1.465,-90.698,-14.465
0.887,-0.028,-0.554,1.221,-86.731,-14.282
0.879,-0.051,-0.563,4.822,-88.867,-13.855

2.221,-0.051,1.093,-4.700,-45.410,1.404
2.581,-0.148,1.963,-11.780,-41.931,-0.793
2.409,-0.223,2.612,-25.330,6.226,-6.653
2.147,-0.320,2.788,-27.405,96.985,-19.653
1.817,-0.236,2.455,-3.357,198.242,-22.522
1.613,-0.109,1.802,35.217,274.658,-21.240
1.335,-0.011,1.224,70.862,312.500,-21.240
0.956,0.047,0.836,94.116,323.059,-20.203
0.514,0.078,0.568,98.083,330.139,-17.578
0.068,0.039,0.370,83.191,346.741,-12.695
-0.334,-0.012,0.106,50.537,381.653,-3.357
-0.660,0.029,-0.299,7.996,426.086,12.756
-1.099,0.245,-0.644,-27.710,461.243,31.311
-1.526,0.513,-0.911,-44.189,485.657,37.720
-2.039,0.782,-1.322,-37.109,503.296,25.696
-2.520,0.757,-2.191,-13.000,509.949,-8.362
-2.768,0.430,-3.557,-2.136,494.141,-48.767
-2.738,0.115,-4.000,-4.089,401.367,-65.674
-2.481,-0.050,-4.000,-3.418,219.238,-40.161
-1.701,0.070,-3.999,6.104,-3.113,10.986
-0.920,0.260,-2.626,11.597,-193.115,50.171
-0.120,0.444,-1.225,-0.488,-293.396,54.077
0.179,0.338,-0.143,-8.728,-308.899,15.808
0.511,-0.070,0.336,-7.324,-258.484,-40.588
0.609,-0.486,0.451,-2.991,-198.120,-70.496
0.667,-0.780,0.381,-2.258,-141.296,-69.214
0.700,-0.892,0.246,-7.507,-93.750,-47.180
0.726,-0.843,0.076,-15.808,-54.993,-17.273
0.731,-0.732,-0.085,-19.592,-28.625,8.789
0.707,-0.601,-0.212,-16.174,-13.550,28.564
0.678,-0.471,-0.338,-8.118,-4.395,41.748
0.665,-0.311,-0.497,1.099,1.526,48.950
0.580,-0.222,-0.663,15.259,-0.916,48.950
0.540,-0.087,-0.792,22.583,-2.625,49.561
0.512,0.013,-0.918,23.010,-5.249,46.997
0.487,0.108,-1.018,23.865,-12.451,43.091
0.471,0.172,-1.076,20.813,-20.203,36.743
0.461,0.208,-1.104,17.517,-29.846,29.114
0.450,0.231,-1.102,15.381,-42.358,22.339
0.447,0.242,-1.090,13.550,-54.199,16.418
0.456,0.263,-1.059,9.583,-64.209,10.681
0.478,0.286,-1.025,5.554,-72.876,5.188
0.498,0.277,-0.984,3.479,-81.909,-1.038
0.516,0.252,-0.933,2.197,-89.966,-7.080
0.544,0.223,-0.879,2.136,-97.290,-12.878
0.569,0.181,-0.826,3.601,-103.333,-18.372
0.579,0.128,-0.783,5.737,-108.032,-23.132
0.595,0.076,-0.759,6.653,-109.924,-25.818
0.616,0.039,-0.740,5.554,-110.291,-25.696
0.643,0.017,-0.712,3.296,-110.229,-23.743
0.674,0.003,-0.688,0.549,-111.023,-21.179
0.689,-0.005,-0.666,-2.625,-110.901,-18.188
0.704,-0.017,-0.623,-6.042,-110.779,-15.869
0.755,-0.015,-0.581,-9.216,-109.253,-13.794
0.813,0.003,-0.533,-10.010,-108.215,-12.878
0.856,0.014,-0.477,-6.836,-109.375,-14.709
0.899,0.002,-0.407,-1.465,-109.924,-19.104
0.920,-0.034,-0.361,3.845,-108.337,-23.315
0.941,-0.066,-0.328,5.920,-102.478,-26.367
0.939,-0.107,-0.307,7.446,-97.107,-27.283

1.922,-0.074,0.964,-0.793,-18.555,32.593
2.017,-0.054,1.237,-2.686,-4.456,29.114
2.077,-0.068,1.498,-6.470,22.949,22.400
2.081,-0.027,1.715,-10.254,61.646,15.320
1.988,-0.013,1.895,-7.019,102.295,8.118
1.732,-0.048,1.917,4.639,149.658,0.488
1.399,-0.082,1.676,20.386,205.139,-3.967
1.065,-0.069,1.258,34.729,257.507,-3.845
0.662,-0.067,0.782,41.992,298.340,-0.671
0.198,-0.112,0.325,36.499,329.895,8.301
-0.208,-0.136,-0.214,13.550,363.586,27.283
-0.494,0.073,-0.658,-25.818,402.588,51.392
-0.888,0.290,-1.058,-63.721,432.861,63.843
-1.426,0.483,-1.405,-76.538,446.655,63.354
-1.841,0.549,-2.135,-78.003,467.529,46.265
-2.093,0.476,-3.169,-71.350,464.417,19.226
-2.252,0.226,-4.000,-62.012,404.419,-11.108
-2.218,-0.095,-4.000,-58.167,275.024,-23.682
-1.502,-0.043,-4.000,-41.382,81.360,5.981
-0.844,0.192,-2.931,4.272,-135.254,40.344
-0.198,0.237,-1.521,47.424,-284.851,41.870
0.328,0.016,-0.353,64.819,-352.783,21.423
0.515,-0.175,0.716,71.289,-342.407,-10.132
0.708,-0.704,0.946,48.767,-238.892,-42.969
0.754,-0.893,0.685,8.728,-127.075,-34.485
0.868,-0.783,0.316,-19.470,-53.650,-0.427
0.912,-0.565,0.059,-28.503,-21.057,28.870
0.908,-0.371,-0.103,-19.775,-11.414,45.410
0.902,-0.211,-0.227,-5.676,-8.728,48.523
0.836,-0.123,-0.364,10.986,-9.888,43.152
0.756,-0.062,-0.547,21.484,-9.827,37.170
0.714,0.042,-0.688,25.208,-10.315,32.898
0.677,0.158,-0.804,26.978,-14.343,27.344
0.646,0.257,-0.886,29.724,-22.339,18.616
0.609,0.286,-0.941,32.837,-32.654,6.714
0.572,0.276,-0.965,36.011,-44.739,-3.662
0.551,0.247,-0.957,37.781,-56.763,-11.230
0.539,0.203,-0.924,36.987,-66.040,-16.174
0.551,0.173,-0.884,33.142,-72.083,-17.151
0.573,0.180,-0.824,27.527,-76.904,-14.893
0.615,0.199,-0.766,22.461,-80.750,-11.414
0.657,0.202,-0.733,18.127,-83.130,-9.216
0.696,0.205,-0.703,12.207,-84.045,-8.301
0.734,0.208,-0.659,6.226,-84.473,-7.568
0.769,0.195,-0.623,2.136,-85.327,-7.751
0.807,0.197,-0.592,-1.221,-85.510,-8.911
0.831,0.210,-0.558,-2.625,-86.304,-11.536
0.837,0.193,-0.520,-0.122,-88.562,-16.235
0.875,0.170,-0.491,5.188,-91.248,-21.973
0.855,0.121,-0.477,10.498,-92.529,-26.611
0.843,0.066,-0.468,13.672,-92.651,-30.151
0.836,0.041,-0.449,13.550,-92.285,-30.640
0.829,0.012,-0.427,12.268,-91.248,-29.846
0.822,-0.015,-0.405,10.986,-89.966,-27.893
0.834,-0.022,-0.397,7.935,-88.135,-24.658
0.837,-0.019,-0.368,5.005,-86.792,-20.752
0.912,0.004,-0.324,4.211,-86.853,-18.494
0.941,0.024,-0.259,6.226,-88.806,-17.395
0.942,-0.001,-0.211,10.498,-90.454,-17.883
0.956,-0.020,-0.180,11.719,-87.708,-18.127

2.061,0.142,1.261,-4.028,33.752,1.282
2.174,0.192,1.592,-2.075,53.101,-11.902
2.129,0.124,1.736,0.793,90.332,-35.950
1.943,-0.098,1.644,13.184,127.502,-55.359
1.684,-0.370,1.393,41.260,150.513,-58.838
1.430,-0.564,1.194,75.500,160.522,-48.645
1.198,-0.651,1.016,98.206,172.180,-27.466
1.002,-0.515,0.857,90.332,198.975,-0.549
0.816,-0.358,0.651,62.134,226.990,28.931
0.497,-0.176,0.414,28.687,252.014,55.664
0.238,0.017,0.143,-4.456,283.752,75.073
-0.028,0.287,-0.191,-28.687,311.462,88.928
-0.370,0.458,-0.576,-43.579,334.839,88.501
-0.766,0.678,-0.972,-51.453,360.535,77.881
-1.269,0.845,-1.489,-46.143,382.874,58.472
-1.741,0.829,-2.468,-26.184,399.719,28.198
-2.011,0.556,-3.843,-24.658,400.635,-6.714
-2.015,0.335,-4.000,-37.659,324.768,-18.799
-1.448,0.412,-4.000,-46.875,165.466,-2.075
-0.878,0.382,-3.323,-21.973,-30.457,14.404
-0.259,0.226,-1.828,10.742,-180.542,13.733
0.256,0.096,-0.424,23.071,-248.291,4.395
0.479,-0.257,0.268,10.132,-207.336,-23.315
0.613,-0.634,0.370,-8.545,-134.155,-38.635
0.733,-0.788,0.297,-17.517,-86.060,-23.865
0.821,-0.774,0.210,-20.325,-58.105,1.099
0.891,-0.657,0.129,-18.005,-40.344,22.888
0.909,-0.506,0.034,-8.850,-29.419,37.964
0.901,-0.363,-0.098,3.296,-21.606,45.532
0.849,-0.211,-0.263,15.564,-16.602,48.157
0.812,-0.057,-0.410,23.193,-13.000,47.119
0.772,0.076,-0.556,24.597,-8.972,41.138
0.712,0.159,-0.682,27.100,-11.353,31.189
0.659,0.200,-0.777,28.076,-15.564,20.081
0.613,0.204,-0.860,27.710,-21.057,8.789
0.588,0.202,-0.897,26.306,-28.931,0.610
0.569,0.210,-0.897,25.330,-40.344,-4.150
0.570,0.231,-0.879,25.269,-51.819,-7.080
0.588,0.247,-0.855,24.231,-60.669,-9.705
0.613,0.262,-0.840,21.179,-66.711,-12.634
0.626,0.269,-0.821,16.296,-71.594,-15.076
0.652,0.266,-0.796,10.254,-76.538,-16.724
0.667,0.260,-0.737,4.517,-82.458,-17.334
0.681,0.238,-0.677,-0.549,-86.670,-18.616
0.694,0.203,-0.639,-4.578,-88.562,-19.714
0.720,0.167,-0.623,-7.690,-89.722,-19.653
0.763,0.158,-0.589,-10.925,-92.896,-18.250
0.805,0.150,-0.520,-13.062,-98.511,-16.418
0.851,0.144,-0.440,-14.893,-102.112,-15.564
0.897,0.149,-0.371,-15.686,-103.394,-16.296
0.931,0.147,-0.304,-12.939,-104.858,-18.188
0.960,0.137,-0.252,-9.644,-103.333,-21.362
0.983,0.129,-0.214,-7.080,-99.548,-25.146
1.002,0.110,-0.175,-4.028,-95.398,-29.236
1.001,0.059,-0.159,-0.244,-90.698,-33.813
0.993,-0.020,-0.160,3.967,-86.487,-36.865
1.001,-0.094,-0.179,4.883,-81.665,-36.011
1.004,-0.154,-0.154,1.343,-78.125,-30.640
1.023,-0.189,-0.095,-4.333,-74.097,-21.729
1.068,-0.176,-0.038,-10.254,-67.383,-11.169

0.970,-0.395,1.286,-88.562,127.441,52.673
0.758,-0.401,1.103,-102.966,216.248,56.641
0.943,-0.323,1.116,-128.601,299.133,67.505
0.456,-0.432,0.838,-151.917,382.446,69.519
0.503,-0.547,0.493,-152.649,450.439,92.529
0.843,0.046,0.370,-163.086,490.601,133.301
0.845,0.390,0.207,-157.593,506.348,133.911
0.696,0.437,0.092,-135.742,517.639,98.999
0.750,0.341,0.052,-91.919,517.456,56.030
0.720,0.367,-0.151,-57.312,508.667,30.945
0.465,0.391,-0.312,-55.664,497.314,7.568
0.271,0.431,-0.515,-62.073,469.238,-15.869
0.167,0.489,-0.861,-48.950,427.551,-57.556
0.075,0.392,-1.149,2.258,372.192,-111.267
0.082,0.171,-1.287,78.369,308.838,-148.315
0.147,-0.021,-1.635,143.494,257.263,-155.884
0.115,-0.142,-1.853,146.362,207.275,-136.719
0.033,-0.127,-2.015,121.155,162.537,-96.069
-0.082,-0.088,-2.002,92.346,107.361,-59.998
-0.069,-0.080,-1.921,64.331,70.862,-38.574
-0.006,-0.047,-1.785,44.617,47.791,-23.254
0.065,0.001,-1.625,26.489,26.978,-8.179
0.132,0.048,-1.479,7.446,10.681,2.136
0.204,0.131,-1.338,0.366,-4.578,9.277
0.269,0.214,-1.196,6.714,-20.813,10.559
0.365,0.284,-1.097,22.400,-33.691,2.441
0.446,0.276,-1.043,39.612,-42.358,-10.864
0.499,0.243,-1.008,49.133,-49.316,-23.193
0.517,0.223,-0.990,48.279,-55.908,-31.982
0.505,0.221,-0.992,41.809,-62.317,-38.269
0.494,0.218,-1.009,37.109,-69.580,-44.373
0.513,0.195,-1.067,38.208,-78.125,-51.514
0.520,0.180,-1.115,42.847,-91.431,-62.378
0.397,0.081,-1.077,49.133,-109.497,-72.144
0.427,0.005,-1.054,53.467,-124.817,-71.777
0.389,-0.019,-1.096,43.701,-135.681,-67.200
0.401,-0.008,-1.164,28.870,-147.400,-53.650
0.466,0.043,-1.191,25.879,-164.429,-32.410
0.496,0.118,-1.091,27.527,-186.829,-14.343
0.516,0.166,-0.969,32.227,-211.609,-2.197
0.515,0.192,-0.816,33.691,-223.755,-2.014
0.555,0.156,-0.713,25.391,-224.304,-7.935
0.582,0.105,-0.617,13.245,-219.116,-15.076
0.620,0.060,-0.522,1.282,-210.754,-15.869
0.666,0.051,-0.431,-4.822,-203.430,-12.207
0.694,0.043,-0.342,-5.432,-196.045,-9.277
0.756,0.042,-0.318,-2.625,-187.988,-6.348
0.801,0.073,-0.287,1.892,-181.396,-4.944
0.846,0.098,-0.299,9.094,-175.110,-5.493
0.867,0.102,-0.336,19.348,-170.715,-8.362
0.885,0.134,-0.367,26.306,-169.617,-9.644
0.914,0.177,-0.397,30.029,-169.739,-11.169
0.929,0.183,-0.418,34.790,-171.387,-15.381
0.913,0.163,-0.407,38.025,-174.438,-21.179
0.906,0.126,-0.316,38.208,-178.284,-27.588
0.857,0.057,-0.220,36.804,-179.382,-30.640
0.852,0.002,-0.084,30.579,-173.340,-29.846
0.860,-0.045,0.003,22.644,-159.302,-27.588
0.903,-0.049,0.046,18.127,-140.991,-23.804
0.962,-0.025,0.033,16.235,-124.573,-19.104

0.731,-0.414,1.630,-77.209,271.179,3.845
0.632,-0.382,1.584,-119.995,404.358,-3.906
0.829,-0.428,1.237,-154.907,526.245,17.639
0.595,-0.440,0.861,-195.923,613.098,41.321
0.448,-0.130,0.530,-223.450,662.659,57.922
0.478,0.021,-0.163,-185.547,684.753,57.495
0.399,0.143,-0.626,-135.681,671.875,38.757
0.409,0.500,-1.022,-106.506,621.521,6.653
0.331,0.459,-1.429,-36.987,544.373,-53.589
-0.052,0.141,-1.617,67.749,414.917,-121.521
-0.161,-0.119,-1.970,151.733,314.697,-154.114
-0.101,-0.037,-1.996,194.946,222.473,-134.094
-0.272,-0.073,-1.919,213.745,129.456,-100.220
-0.336,-0.073,-1.807,214.172,73.914,-66.345
-0.303,-0.052,-1.656,183.716,46.997,-38.208
-0.221,0.025,-1.538,127.747,45.105,-14.709
-0.148,0.095,-1.490,69.702,55.420,2.686
-0.066,0.183,-1.478,27.039,58.411,16.785
0.037,0.291,-1.456,4.333,47.913,24.597
0.127,0.359,-1.354,-4.578,21.667,20.813
0.223,0.414,-1.278,10.254,-2.136,11.902
0.275,0.397,-1.176,34.973,-27.771,-0.305
0.326,0.355,-1.068,49.072,-48.645,-14.893
0.358,0.301,-0.975,47.302,-59.631,-27.588
0.381,0.245,-0.887,38.208,-61.646,-36.377
0.395,0.161,-0.806,25.879,-57.190,-41.687
0.426,0.089,-0.785,7.935,-47.058,-44.250
0.454,0.046,-0.813,-9.277,-35.095,-40.833
0.475,0.023,-0.862,-16.541,-27.832,-33.875
0.487,0.001,-0.917,-12.085,-27.039,-25.513
0.500,-0.010,-0.964,-1.282,-32.043,-16.724
0.509,0.009,-0.993,10.620,-39.856,-8.545
0.519,0.045,-1.055,24.963,-47.180,-4.517
0.537,0.127,-1.078,42.542,-56.702,-3.418
0.555,0.177,-1.021,66.223,-68.481,-7.385
0.579,0.180,-0.972,91.492,-77.515,-15.381
0.603,0.166,-0.872,98.511,-83.923,-24.170
0.627,0.163,-0.811,86.731,-84.961,-30.029
0.645,0.169,-0.781,69.519,-81.787,-31.738
0.643,0.170,-0.786,54.810,-80.872,-32.593
0.628,0.164,-0.797,41.077,-82.275,-31.738
0.608,0.166,-0.816,31.006,-82.336,-30.457
0.591,0.169,-0.859,26.733,-82.764,-28.015
0.582,0.180,-0.914,25.330,-85.815,-25.085
0.570,0.194,-0.954,25.696,-91.797,-22.766
0.574,0.226,-0.967,26.917,-100.830,-21.057
0.556,0.230,-0.926,30.457,-111.633,-21.118
0.608,0.249,-0.840,34.363,-121.399,-23.193
0.635,0.228,-0.710,37.476,-131.714,-28.931
0.644,0.178,-0.589,35.400,-135.132,-36.316
0.688,0.140,-0.502,26.978,-127.808,-41.199
0.719,0.115,-0.457,18.494,-117.188,-43.213
0.770,0.102,-0.457,14.282,-105.103,-42.603
0.814,0.104,-0.483,14.404,-95.520,-39.612
0.841,0.124,-0.523,15.930,-88.928,-35.156
0.872,0.176,-0.577,17.029,-85.083,-31.433
0.869,0.206,-0.627,19.775,-86.304,-30.273
0.828,0.187,-0.632,21.240,-90.393,-31.616
0.818,0.160,-0.621,18.555,-91.003,-33.264
0.821,0.136,-0.611,15.564,-90.210,-33.386

0.217,0.378,-1.669,-11.963,292.786,-67.993
-0.019,0.233,-1.859,80.261,198.486,-86.548
-0.217,0.102,-1.926,150.330,128.296,-90.576
-0.325,0.044,-1.902,166.321,80.750,-73.059
-0.377,0.047,-1.827,139.587,55.481,-44.128
-0.329,0.069,-1.701,95.276,44.983,-15.320
-0.206,0.164,-1.562,45.959,38.513,8.789
-0.074,0.281,-1.440,13.367,34.912,24.719
0.067,0.379,-1.342,6.531,21.729,30.090
0.198,0.407,-1.211,10.254,-0.244,25.330
0.274,0.392,-1.083,10.681,-21.240,15.564
0.315,0.388,-1.010,11.475,-35.828,5.493
0.346,0.356,-0.968,13.672,-44.373,-4.456
0.364,0.298,-0.940,13.123,-47.791,-13.611
0.365,0.232,-0.904,9.949,-46.936,-20.142
0.379,0.184,-0.905,2.686,-43.457,-24.048
0.396,0.135,-0.895,-2.747,-39.856,-24.780
0.417,0.081,-0.899,-3.540,-37.231,-23.254
0.435,0.056,-0.899,-3.723,-35.828,-19.409
0.461,0.053,-0.892,-3.357,-34.485,-15.137
0.510,0.038,-0.879,-1.221,-34.119,-11.047
0.540,0.043,-0.866,0.366,-34.058,-7.019
0.564,0.059,-0.852,2.014,-33.325,-3.479
0.585,0.068,-0.852,4.700,-31.311,-0.916
0.592,0.092,-0.831,5.554,-29.175,1.099
0.596,0.110,-0.824,5.371,-25.574,1.587
0.596,0.120,-0.822,2.930,-20.508,0.732
0.580,0.141,-0.846,-0.732,-14.709,0.000
0.562,0.173,-0.879,-3.113,-10.315,-0.366
0.557,0.192,-0.911,-2.869,-8.240,-2.014
0.572,0.213,-0.940,-0.427,-8.423,-5.554
0.568,0.230,-0.979,6.531,-13.062,-11.414
0.540,0.209,-0.964,14.465,-22.522,-17.822
0.504,0.179,-0.945,19.165,-30.823,-23.132
0.501,0.153,-0.953,19.836,-35.950,-25.452
0.524,0.160,-1.002,18.677,-40.833,-25.208
0.515,0.205,-1.062,21.301,-49.866,-24.841
0.475,0.195,-1.160,34.851,-64.270,-24.658
0.459,0.225,-1.183,47.241,-83.008,-22.156
0.457,0.296,-1.162,57.251,-103.333,-22.217
0.490,0.360,-1.152,80.566,-120.483,-28.137
0.499,0.381,-1.179,119.446,-139.526,-38.757
0.526,0.301,-1.134,162.354,-161.316,-52.856
0.554,0.281,-1.013,153.992,-198.181,-61.096
0.592,0.380,-0.947,100.525,-228.088,-62.622
0.581,0.492,-0.885,49.133,-237.244,-65.674
0.537,0.415,-0.849,24.414,-235.657,-77.332
0.562,0.285,-0.730,18.311,-240.356,-84.534
0.607,0.237,-0.666,27.344,-253.052,-82.092
0.614,0.272,-0.550,33.630,-260.498,-76.599
0.633,0.252,-0.468,32.043,-254.272,-78.491
0.636,0.202,-0.395,23.437,-240.540,-86.609
0.671,0.150,-0.383,13.367,-222.229,-93.018
0.720,0.087,-0.344,2.747,-208.252,-93.018
0.765,0.000,-0.249,0.122,-201.782,-89.417
0.773,-0.111,-0.112,0.366,-195.923,-81.421
0.769,-0.200,0.041,-3.235,-184.143,-69.214
0.788,-0.251,0.159,-10.376,-162.231,-54.504
0.834,-0.232,0.209,-18.005,-131.775,-39.673
0.899,-0.204,0.204,-24.841,-99.182,-25.391

0.628,-0.949,2.008,-154.419,326.477,34.851
0.807,-0.666,2.084,-168.945,502.502,77.209
1.055,-0.496,1.139,-153.320,672.241,92.285
1.125,-0.091,-0.262,-146.423,794.312,111.389
0.593,0.545,-1.032,-154.358,802.185,127.991
0.136,0.747,-1.989,-130.737,697.327,79.346
-0.124,0.694,-2.488,-46.997,489.868,-16.052
-0.308,0.505,-2.620,68.726,297.424,-105.408
-0.452,0.161,-2.286,167.969,138.184,-154.175
-0.794,-0.177,-1.800,224.365,30.273,-148.926
-0.893,-0.333,-1.481,222.351,-4.333,-92.407
-0.796,-0.125,-1.392,162.048,24.597,-12.207
-0.540,0.204,-1.462,89.966,65.308,44.495
-0.258,0.482,-1.469,45.898,72.693,74.402
-0.075,0.650,-1.365,29.419,48.523,77.454
0.037,0.658,-1.220,33.142,14.038,59.204
0.108,0.582,-1.066,38.513,-12.756,34.729
0.134,0.496,-1.014,31.433,-23.926,15.564
0.137,0.455,-1.044,16.968,-23.132,3.723
0.138,0.419,-1.105,0.916,-20.142,-3.540
0.168,0.384,-1.170,-11.597,-18.982,-9.155
0.158,0.339,-1.158,-15.015,-24.292,-13.428
0.142,0.290,-1.097,-15.686,-33.691,-18.555
0.134,0.201,-1.031,-16.724,-40.527,-24.048
0.153,0.136,-0.983,-16.418,-44.556,-26.733
0.167,0.066,-0.934,-13.306,-47.058,-26.062
0.189,0.024,-0.905,-7.812,-48.035,-22.522
0.218,0.003,-0.883,-3.479,-47.058,-17.517
0.255,-0.011,-0.871,-1.282,-44.006,-11.780
0.288,0.016,-0.876,-2.380,-38.452,-5.920
0.321,0.043,-0.894,-4.028,-32.532,-2.075
0.352,0.072,-0.924,-3.540,-26.917,0.610
0.361,0.104,-0.939,-1.160,-23.926,2.930
0.369,0.134,-0.946,2.197,-22.522,2.625
0.377,0.140,-0.944,3.967,-21.179,0.122
0.375,0.170,-0.941,2.136,-18.799,-1.648
0.380,0.182,-0.953,-0.061,-15.808,-3.601
0.379,0.191,-0.964,-0.977,-13.000,-6.287
0.367,0.185,-0.977,-1.526,-12.329,-9.155
0.347,0.191,-0.981,-1.099,-13.000,-11.108
0.337,0.186,-0.973,-0.854,-13.672,-12.695
0.334,0.172,-0.979,-1.526,-13.184,-13.916
0.329,0.163,-0.989,-2.747,-12.695,-13.367
0.317,0.160,-1.000,-2.197,-13.184,-11.292
0.309,0.162,-1.000,-1.038,-15.381,-9.521
0.312,0.166,-1.004,0.488,-17.944,-8.240
0.316,0.175,-1.016,1.648,-20.630,-6.836
0.323,0.180,-1.037,3.113,-23.987,-5.859
0.322,0.193,-1.068,4.517,-28.320,-4.761
0.322,0.201,-1.105,5.371,-33.569,-3.784
0.314,0.219,-1.152,7.385,-40.894,-3.235
0.308,0.231,-1.190,12.268,-51.270,-3.845
0.315,0.245,-1.221,19.348,-65.796,-4.150
0.335,0.273,-1.230,26.123,-84.473,-5.615
0.331,0.276,-1.210,30.884,-105.164,-7.507
0.326,0.301,-1.168,35.522,-127.075,-9.399
0.353,0.297,-1.125,38.574,-147.583,-10.254
0.407,0.301,-1.079,39.246,-165.833,-8.606
0.414,0.320,-1.016,39.429,-182.861,-5.493
0.345,0.306,-0.985,38.635,-196.777,-5.493

0.031,0.367,-1.825,-67.749,342.224,-104.126
-0.234,0.053,-1.955,60.303,207.764,-145.264
-0.440,-0.084,-1.888,177.368,109.070,-146.973
-0.641,-0.215,-1.652,192.627,50.110,-115.845
-0.642,-0.253,-1.505,158.813,33.630,-69.153
-0.524,-0.089,-1.428,104.675,49.255,-13.916
-0.401,0.088,-1.428,49.377,67.932,29.785
-0.260,0.270,-1.396,17.578,65.369,53.955
-0.114,0.379,-1.325,8.545,44.617,58.899
0.001,0.439,-1.214,10.803,13.367,50.476
0.075,0.438,-1.117,18.433,-16.602,35.034
0.120,0.371,-1.067,25.452,-37.903,19.226
0.134,0.316,-1.024,30.457,-50.720,9.277
0.162,0.276,-0.993,32.166,-57.495,5.615
0.182,0.272,-1.007,27.100,-58.167,5.615
0.239,0.291,-1.022,16.785,-54.565,8.240
0.270,0.320,-1.021,6.531,-51.331,7.812
0.296,0.299,-1.021,4.089,-49.011,2.136
0.322,0.297,-0.970,1.465,-47.852,-2.563
0.343,0.239,-0.935,-1.160,-44.495,-6.958
0.353,0.188,-0.909,-5.920,-39.612,-10.620
0.357,0.148,-0.889,-9.705,-33.813,-10.681
0.362,0.111,-0.879,-11.047,-28.137,-8.850
0.376,0.086,-0.871,-11.475,-22.217,-5.432
0.391,0.084,-0.885,-11.475,-15.991,-1.465
0.410,0.109,-0.917,-10.437,-12.817,2.441
0.423,0.143,-0.949,-7.263,-12.268,5.005
0.434,0.174,-0.978,-3.418,-14.038,4.944
0.433,0.199,-0.999,0.122,-17.639,3.296
0.425,0.215,-1.016,3.235,-21.912,1.038
0.417,0.227,-1.031,4.578,-25.940,-1.465
0.400,0.232,-1.032,4.456,-29.480,-3.601
0.369,0.236,-1.002,3.357,-32.166,-5.188
0.356,0.240,-0.965,2.319,-33.264,-6.714
0.367,0.238,-0.950,1.404,-32.288,-8.545
0.386,0.237,-0.948,-0.061,-31.006,-10.376
0.388,0.230,-0.953,-0.854,-30.884,-12.512
0.390,0.223,-0.957,-1.099,-31.799,-13.977
0.396,0.219,-0.966,-1.038,-33.264,-14.832
0.401,0.220,-0.987,-1.099,-34.973,-15.869
0.406,0.225,-1.004,-1.038,-37.781,-17.334
0.410,0.233,-1.029,0.488,-41.382,-19.165
0.417,0.232,-1.040,4.150,-46.997,-21.484
0.410,0.228,-1.039,9.094,-54.382,-23.743
0.417,0.217,-1.040,14.648,-62.988,-26.428
0.429,0.197,-1.032,18.066,-72.510,-27.100
0.447,0.225,-1.020,18.799,-83.557,-25.940
0.477,0.249,-1.061,26.184,-95.459,-27.893
0.484,0.214,-1.100,41.443,-113.403,-31.555
0.470,0.236,-1.063,48.950,-136.841,-29.236
0.460,0.238,-1.031,52.368,-156.067,-29.114
0.441,0.277,-0.982,53.772,-171.082,-29.053
0.480,0.279,-0.938,54.871,-180.237,-28.870
0.499,0.284,-0.856,52.612,-185.974,-29.663
0.585,0.303,-0.801,46.204,-187.683,-32.349
0.642,0.309,-0.788,40.771,-185.303,-39.429
0.672,0.294,-0.789,31.738,-182.190,-45.349
0.669,0.274,-0.768,24.780,-184.204,-50.476
0.696,0.335,-0.773,23.315,-187.744,-53.162
0.777,0.427,-0.746,22.461,-190.247,-60.669

-0.402,0.042,-2.345,-2.380,236.328,-63.477
-0.526,-0.274,-2.010,85.754,130.249,-81.299
-0.622,-0.413,-1.545,127.625,68.665,-52.185
-0.627,-0.344,-1.258,108.032,56.824,4.761
-0.413,-0.096,-1.223,67.200,76.111,58.899
-0.186,0.149,-1.196,38.269,91.431,90.027
0.000,0.230,-1.219,23.926,84.595,97.168
-0.001,0.284,-1.104,35.461,48.157,90.637
0.056,0.285,-1.007,43.945,30.029,78.430
0.047,0.250,-0.978,43.884,19.592,65.063
0.046,0.264,-0.998,34.851,14.099,57.251
0.066,0.308,-1.082,23.071,14.771,50.232
0.081,0.355,-1.181,19.592,14.343,41.748
0.077,0.372,-1.233,20.447,2.686,30.151
0.053,0.345,-1.215,22.400,-13.611,17.029
0.060,0.311,-1.168,19.287,-27.405,4.333
0.055,0.276,-1.093,13.123,-35.828,-5.737
0.042,0.206,-0.990,9.277,-40.039,-13.306
0.037,0.140,-0.924,2.380,-38.879,-19.043
0.068,0.105,-0.885,-2.441,-32.837,-20.203
0.086,0.061,-0.858,-1.892,-26.367,-18.372
0.099,0.024,-0.870,-2.563,-20.447,-15.076
0.132,0.015,-0.910,-2.563,-14.954,-10.376
0.172,0.017,-0.971,-0.122,-12.817,-5.066
0.204,0.051,-1.013,3.540,-14.099,-0.244
0.233,0.088,-1.031,7.751,-17.761,3.174
0.266,0.115,-1.051,10.803,-20.020,5.188
0.295,0.165,-1.085,9.644,-20.996,6.592
0.311,0.208,-1.108,9.155,-22.766,6.104
0.328,0.239,-1.113,11.841,-27.222,4.150
0.331,0.261,-1.103,15.015,-33.447,1.160
0.323,0.252,-1.073,13.306,-38.208,-3.296
0.291,0.229,-1.028,7.263,-39.368,-8.606
0.277,0.232,-0.995,0.793,-36.987,-11.902
0.286,0.225,-0.972,-0.549,-33.325,-13.428
0.291,0.210,-0.962,0.488,-29.846,-15.076
0.298,0.215,-0.955,0.427,-27.100,-17.212
0.278,0.206,-0.983,0.122,-25.513,-20.813
0.286,0.210,-0.993,-1.709,-26.489,-25.085
0.270,0.149,-1.045,-0.061,-28.320,-27.344
0.241,0.145,-1.032,4.211,-32.776,-26.245
0.218,0.137,-1.035,7.385,-37.781,-23.743
0.224,0.143,-1.038,6.104,-40.833,-21.729
0.235,0.139,-1.068,1.648,-42.358,-19.897
0.229,0.128,-1.112,-0.793,-44.739,-18.372
0.219,0.143,-1.122,0.366,-52.002,-15.015
0.220,0.150,-1.117,4.150,-62.378,-11.902
0.239,0.179,-1.111,7.202,-72.693,-10.193
0.268,0.185,-1.092,9.338,-82.458,-11.169
0.339,0.202,-1.057,13.123,-91.187,-13.672
0.352,0.243,-1.029,20.081,-100.586,-19.531
0.336,0.239,-1.024,32.349,-111.938,-28.809
0.349,0.235,-1.015,45.044,-121.948,-36.621
0.410,0.236,-1.001,49.133,-128.662,-41.321
0.439,0.229,-1.014,44.617,-135.681,-44.373
0.460,0.273,-1.014,37.720,-143.188,-43.945
0.461,0.274,-1.027,32.959,-150.330,-44.189
0.474,0.270,-0.994,26.306,-156.616,-46.082
0.460,0.218,-0.972,20.142,-160.889,-50.354
0.491,0.243,-0.921,16.296,-163.696,-52.551

0.844,-0.776,1.698,-75.867,226.562,59.143
0.733,-0.809,1.474,-65.125,338.135,96.802
0.941,-0.177,1.725,-79.346,453.491,134.766
0.737,-0.114,1.247,-97.900,587.219,109.131
0.643,-0.275,0.426,-109.802,690.308,74.524
0.296,-0.250,-0.772,-96.191,727.051,97.534
0.339,0.591,-0.882,-106.689,667.114,126.587
0.493,0.679,-0.885,-132.507,574.951,66.345
0.278,0.540,-1.767,-93.872,510.071,-39.001
0.013,0.620,-2.153,4.578,412.598,-100.525
-0.220,0.317,-2.285,131.104,256.226,-136.841
-0.499,0.127,-2.144,242.554,124.634,-138.977
-0.664,-0.056,-1.895,292.480,40.894,-115.906
-0.655,-0.059,-1.652,273.926,10.681,-72.144
-0.597,0.032,-1.476,197.754,17.517,-19.531
-0.388,0.286,-1.460,108.154,44.250,26.428
-0.211,0.538,-1.468,39.246,65.796,52.734
-0.020,0.686,-1.446,-3.723,67.627,56.702
0.131,0.785,-1.334,-26.306,49.988,45.776
0.245,0.749,-1.193,-28.137,27.039,22.705
0.285,0.675,-1.038,-11.963,5.920,-4.089
0.279,0.541,-0.949,-2.991,-8.728,-27.893
0.260,0.448,-0.937,-8.240,-15.808,-44.189
0.249,0.372,-0.987,-17.090,-18.616,-52.124
0.213,0.306,-1.016,-22.949,-20.508,-55.298
0.177,0.233,-1.016,-20.630,-19.775,-51.392
0.159,0.148,-1.012,-17.090,-19.104,-46.265
0.160,0.090,-1.024,-20.264,-18.372,-39.185
0.179,0.051,-1.019,-20.203,-19.043,-28.625
0.208,0.045,-0.951,-14.221,-22.400,-17.822
0.258,0.016,-0.880,-9.949,-24.231,-9.277
0.317,0.011,-0.857,-11.353,-19.409,-1.282
0.377,0.052,-0.878,-13.977,-12.451,7.019
0.409,0.123,-0.892,-9.277,-8.179,13.062
0.426,0.135,-0.889,-0.427,-7.446,14.282
0.441,0.156,-0.888,2.319,-6.592,11.902
0.464,0.174,-0.941,-1.282,-3.052,10.559
0.457,0.239,-0.997,-5.859,-0.122,10.254
0.441,0.248,-1.067,-1.038,-0.977,2.747
0.402,0.271,-1.095,7.019,-7.446,-2.686
0.362,0.247,-1.067,13.489,-17.212,-7.202
0.337,0.196,-1.026,13.611,-23.560,-11.658
0.311,0.185,-0.995,5.005,-22.827,-11.658
0.293,0.188,-1.003,-4.211,-18.494,-9.155
0.298,0.208,-1.027,-9.460,-16.968,-6.958
0.308,0.226,-1.050,-7.324,-20.142,-4.822
0.320,0.236,-1.074,-1.709,-27.710,-4.456
0.329,0.245,-1.106,3.601,-38.940,-6.592
0.335,0.251,-1.146,9.460,-52.002,-9.277
0.356,0.280,-1.215,17.151,-67.383,-12.634
0.389,0.298,-1.233,27.039,-88.257,-18.250
0.411,0.343,-1.275,43.884,-115.906,-23.193
0.454,0.349,-1.260,63.416,-149.231,-24.231
0.458,0.394,-1.219,82.336,-181.396,-32.288
0.411,0.506,-1.108,92.041,-207.336,-39.856
0.279,0.417,-1.101,97.656,-217.957,-43.335
0.271,0.433,-0.931,92.529,-228.394,-47.180
0.212,0.306,-0.867,70.740,-232.605,-75.439
0.319,0.230,-0.789,57.861,-230.286,-90.454
0.473,0.220,-0.789,65.186,-223.633,-90.698

0.909,-0.767,2.256,-82.947,193.970,42.297
1.073,-0.493,2.791,-110.413,384.460,66.406
0.964,-0.038,2.712,-116.577,590.881,53.223
0.733,0.011,1.471,-78.857,749.512,-12.451
0.681,0.139,-0.120,-52.002,834.656,-63.477
0.528,0.381,-1.312,-57.495,822.754,-115.112
0.216,0.610,-2.082,2.808,683.167,-149.658
-0.301,0.581,-2.567,119.751,459.961,-195.190
-1.055,0.195,-2.725,241.211,239.929,-228.027
-1.341,0.095,-2.556,331.909,73.608,-214.294
-1.489,-0.139,-2.377,384.888,-18.433,-169.800
-1.400,-0.117,-1.954,351.013,-48.218,-82.031
-1.243,0.168,-1.570,230.530,-28.564,15.991
-0.886,0.508,-1.413,117.249,24.475,83.923
-0.485,0.801,-1.327,51.331,56.030,117.615
-0.112,1.005,-1.235,28.564,45.837,114.197
0.157,1.019,-1.071,37.476,13.184,85.632
0.282,0.892,-0.895,48.767,-22.217,49.622
0.299,0.764,-0.810,44.922,-41.687,19.043
0.296,0.684,-0.841,24.353,-44.189,-1.282
0.312,0.608,-0.967,2.808,-38.391,-14.526
0.296,0.557,-1.031,-9.521,-36.194,-20.691
0.288,0.493,-1.051,-19.165,-38.086,-23.193
0.305,0.409,-1.046,-25.940,-37.170,-22.278
0.330,0.328,-0.998,-30.701,-34.790,-19.348
0.373,0.262,-0.945,-31.982,-31.738,-14.954
0.410,0.220,-0.874,-31.494,-28.564,-8.911
0.454,0.189,-0.849,-28.076,-23.132,-2.625
0.482,0.200,-0.842,-22.644,-16.785,2.563
0.493,0.217,-0.873,-17.273,-12.268,5.005
0.488,0.234,-0.918,-12.451,-9.338,4.089
0.466,0.235,-0.927,-8.057,-9.216,1.587
0.426,0.226,-0.917,-6.104,-9.460,-0.916
0.387,0.233,-0.934,-8.545,-5.798,-2.319
0.349,0.247,-0.976,-12.146,-0.671,-3.174
0.313,0.259,-1.021,-13.855,1.770,-3.967
0.276,0.259,-1.065,-13.672,0.122,-5.371
0.246,0.282,-1.016,-11.780,-5.981,-6.104
0.236,0.252,-0.948,-6.531,-12.207,-6.592
0.248,0.231,-0.911,-7.080,-11.536,-7.019
0.252,0.251,-0.916,-12.756,-6.042,-6.042
0.270,0.262,-0.947,-15.930,-2.808,-5.737
0.270,0.266,-0.974,-14.404,-4.639,-6.836
0.270,0.262,-0.999,-10.315,-10.559,-7.874
0.268,0.269,-1.028,-5.798,-18.982,-8.667
0.279,0.309,-1.020,-3.418,-28.687,-10.925
0.331,0.285,-1.013,0.488,-36.133,-15.076
0.342,0.269,-0.992,3.052,-40.222,-15.564
0.335,0.267,-0.963,-0.854,-42.847,-14.343
0.339,0.269,-0.957,-3.296,-42.114,-12.878
0.351,0.254,-0.959,-5.981,-39.551,-11.963
0.375,0.239,-0.963,-9.216,-37.292,-10.010
0.388,0.233,-0.957,-13.245,-36.682,-7.080
0.390,0.241,-0.962,-17.090,-36.804,-4.761
0.402,0.234,-0.993,-19.104,-37.903,-3.723
0.416,0.228,-1.024,-20.569,-41.687,-3.662
0.468,0.242,-1.071,-20.020,-49.316,-3.662
0.490,0.258,-1.186,-15.625,-62.744,-6.836
0.474,0.301,-1.287,-9.644,-88.928,-8.423
0.475,0.442,-1.277,-2.075,-127.869,-9.094

1.159,-0.612,1.254,-51.697,201.843,41.260
1.071,-0.689,1.463,-64.697,280.334,57.373
0.985,-0.818,1.467,-62.378,358.459,78.979
1.011,-0.718,1.424,-46.875,426.636,106.262
1.107,-0.412,1.276,-23.193,485.474,123.718
1.189,-0.072,1.000,-3.601,543.152,124.939
1.141,0.321,0.612,-7.202,610.291,103.394
1.033,0.549,-0.040,2.869,638.977,60.364
0.824,0.607,-0.842,48.889,615.662,11.169
0.784,0.967,-1.085,98.511,538.757,-25.208
0.447,0.909,-1.223,137.756,457.825,-62.134
-0.017,0.878,-1.563,158.752,395.203,-81.848
-0.512,0.948,-1.839,158.813,330.994,-80.322
-0.934,0.916,-2.002,151.855,267.090,-76.538
-1.184,0.892,-2.019,138.123,211.243,-70.862
-1.213,0.813,-1.964,126.770,167.969,-63.416
-1.687,0.530,-1.843,111.450,127.319,-52.917
-1.823,0.351,-1.399,82.520,95.459,-14.709
-1.257,0.635,-1.448,37.170,106.018,22.827
-0.852,0.815,-1.238,-11.841,87.891,32.227
-0.291,0.731,-1.220,-11.353,51.697,31.616
0.109,0.614,-1.193,-14.771,-10.315,41.260
0.139,0.658,-0.919,-15.503,-89.600,64.514
0.017,0.783,-0.607,-4.944,-131.592,70.618
0.139,0.594,-0.599,-1.038,-119.995,40.833
0.321,0.392,-0.657,-9.338,-86.609,8.423
0.417,0.282,-0.710,-26.001,-62.195,-3.723
0.466,0.201,-0.792,-36.682,-52.124,-7.629
0.524,0.142,-0.856,-34.607,-51.758,-7.935
0.558,0.113,-0.854,-20.020,-54.810,-5.371
0.581,0.107,-0.810,-9.460,-57.373,-3.723
0.597,0.114,-0.774,-4.272,-54.871,-4.150
0.603,0.131,-0.749,-1.038,-49.805,-6.042
0.581,0.155,-0.715,2.991,-44.617,-7.690
0.552,0.179,-0.698,7.080,-38.757,-8.057
0.510,0.219,-0.714,7.141,-31.311,-8.301
0.472,0.267,-0.760,5.371,-22.705,-8.667
0.436,0.312,-0.821,3.845,-16.052,-9.888
0.410,0.334,-0.889,1.892,-12.756,-12.146
0.374,0.340,-0.958,-2.991,-11.719,-14.282
0.330,0.353,-0.999,-10.376,-13.245,-15.137
0.310,0.365,-1.031,-16.724,-16.846,-15.381
0.309,0.361,-1.042,-21.179,-20.813,-14.587
0.314,0.339,-1.029,-23.987,-25.574,-13.062
0.331,0.324,-1.001,-26.978,-30.396,-11.230
0.367,0.314,-0.966,-29.236,-34.912,-9.399
0.409,0.294,-0.938,-30.334,-39.246,-8.423
0.441,0.289,-0.903,-30.640,-43.701,-8.240
0.470,0.286,-0.866,-28.625,-47.852,-8.118
0.498,0.285,-0.848,-25.818,-51.697,-9.094
0.510,0.286,-0.843,-22.949,-55.115,-10.681
0.513,0.293,-0.848,-19.958,-58.655,-12.939
0.507,0.291,-0.861,-17.212,-62.317,-15.686
0.500,0.284,-0.887,-15.137,-66.162,-17.883
0.489,0.292,-0.914,-14.038,-70.801,-20.142
0.486,0.280,-0.947,-14.038,-77.148,-23.621
0.475,0.278,-0.980,-14.709,-84.961,-26.184
0.483,0.271,-0.992,-16.663,-95.459,-28.687
0.476,0.257,-0.994,-16.235,-106.445,-28.809
0.476,0.250,-0.958,-16.357,-118.713,-27.588

0.972,-0.571,1.397,-24.231,348.267,53.345
0.969,-0.215,1.444,-12.695,430.237,63.782
1.058,-0.065,1.461,37.598,491.638,46.448
0.684,-0.141,1.106,103.333,531.067,12.024
0.547,0.268,0.642,130.798,576.477,-12.756
0.493,0.549,-0.005,135.925,604.126,-31.677
0.383,0.646,-0.856,150.940,590.637,-75.012
0.441,0.746,-0.988,175.049,514.587,-111.206
0.155,0.910,-1.451,247.986,407.410,-134.460
-0.145,0.848,-2.178,332.153,294.434,-135.071
-0.474,0.751,-2.150,338.135,180.115,-122.620
-0.661,0.727,-2.301,340.637,94.727,-104.248
-0.646,0.745,-2.190,340.271,37.170,-65.857
-0.559,0.722,-1.850,296.814,3.052,-26.855
-0.479,0.764,-1.500,220.642,0.305,8.423
-0.351,0.801,-1.271,141.724,22.766,35.400
-0.160,0.836,-1.116,81.482,45.898,51.392
0.010,0.876,-1.008,41.138,55.298,56.824
0.154,0.895,-0.913,23.499,45.227,50.293
0.257,0.888,-0.843,25.269,23.682,36.438
0.319,0.847,-0.785,34.119,-2.014,19.836
0.333,0.801,-0.768,40.527,-24.170,3.906
0.321,0.732,-0.756,39.673,-37.292,-7.629
0.323,0.684,-0.769,30.090,-39.490,-15.381
0.333,0.654,-0.797,15.015,-33.020,-16.724
0.351,0.624,-0.809,-1.404,-23.010,-15.259
0.383,0.586,-0.812,-16.418,-13.184,-14.771
0.411,0.532,-0.818,-28.442,-5.249,-14.282
0.433,0.479,-0.820,-36.987,0.061,-12.817
0.455,0.444,-0.830,-42.236,2.991,-10.559
0.468,0.405,-0.840,-44.617,3.357,-8.606
0.482,0.380,-0.843,-44.373,1.953,-7.080
0.494,0.357,-0.842,-41.077,-1.526,-5.615
0.498,0.338,-0.843,-36.926,-5.859,-4.517
0.490,0.337,-0.844,-33.142,-9.949,-4.028
0.488,0.347,-0.863,-30.212,-13.489,-3.479
0.474,0.347,-0.883,-28.442,-16.663,-3.601
0.454,0.354,-0.883,-27.283,-19.714,-3.784
0.434,0.352,-0.869,-26.489,-23.010,-3.906
0.422,0.359,-0.860,-26.611,-25.024,-3.967
0.413,0.366,-0.867,-28.015,-25.940,-3.845
0.416,0.397,-0.874,-30.090,-26.672,-4.272
0.425,0.427,-0.896,-31.494,-28.198,-5.554
0.437,0.438,-0.910,-32.349,-31.250,-8.545
0.465,0.451,-0.892,-33.264,-35.217,-13.611
0.424,0.426,-0.929,-34.546,-38.635,-20.508
0.414,0.425,-0.927,-36.560,-44.739,-25.269
0.407,0.398,-0.928,-36.255,-52.185,-29.602
0.406,0.362,-0.926,-37.720,-60.852,-32.837
0.389,0.332,-0.906,-40.649,-69.885,-33.264
0.386,0.312,-0.889,-43.335,-78.552,-31.555
0.415,0.299,-0.931,-46.753,-85.022,-29.907
0.445,0.311,-0.994,-52.368,-93.506,-28.503
0.461,0.345,-1.036,-56.580,-106.262,-27.893
0.477,0.352,-1.057,-57.678,-123.291,-28.564
0.500,0.341,-1.056,-52.734,-144.958,-28.931
0.530,0.329,-1.021,-48.096,-168.396,-29.236
0.623,0.340,-0.974,-44.739,-189.392,-30.518
0.631,0.363,-0.916,-42.542,-211.243,-36.316
0.592,0.359,-0.837,-37.720,-231.140,-41.199

1.731,-0.467,1.141,-43.945,-55.847,-28.748
1.903,-0.478,1.403,-72.388,-24.536,-13.489
2.057,-0.399,1.672,-96.985,5.554,0.427
2.144,-0.343,1.876,-111.877,37.415,6.165
2.169,-0.263,2.088,-121.460,72.205,2.136
2.026,-0.258,2.283,-124.573,108.765,-9.644
1.704,-0.296,2.371,-119.080,152.344,-24.658
1.341,-0.338,2.398,-106.506,199.707,-36.865
1.026,-0.309,2.298,-91.614,249.390,-42.236
0.672,-0.297,2.066,-78.247,297.791,-42.297
0.245,-0.306,1.742,-64.453,344.849,-41.077
-0.184,-0.273,1.428,-52.124,390.076,-37.109
-0.571,-0.172,1.045,-39.856,432.983,-30.945
-0.947,-0.145,0.575,-25.146,470.886,-24.170
-1.313,-0.182,-0.005,-20.691,512.756,-15.747
-1.599,-0.199,-0.662,-29.297,552.307,-3.113
-1.750,-0.098,-1.217,-44.983,576.904,17.761
-1.895,0.038,-1.686,-58.655,578.125,36.377
-1.875,0.324,-2.005,-57.312,547.485,48.584
-1.966,0.439,-2.438,-33.997,494.507,46.936
-1.893,0.377,-2.915,-9.277,446.472,47.363
-1.836,0.325,-3.409,-5.615,400.818,65.125
-1.567,0.253,-3.890,-23.926,317.871,71.960
-1.025,0.416,-3.837,-32.959,174.438,67.871
-0.560,0.384,-3.159,-17.700,0.366,43.823
-0.410,0.122,-2.256,5.737,-141.785,18.433
-0.215,-0.010,-1.404,4.150,-224.060,10.437
0.082,-0.048,-0.736,-5.615,-255.554,7.751
0.222,-0.145,-0.231,-3.906,-262.512,0.854
0.341,-0.211,0.119,4.150,-242.615,-12.390
0.434,-0.179,0.217,5.981,-190.735,-24.048
0.453,-0.292,0.088,7.629,-132.324,-39.551
0.508,-0.279,-0.049,11.414,-98.572,-44.189
0.512,-0.239,-0.231,19.958,-81.421,-43.396
0.519,-0.225,-0.370,32.410,-76.294,-44.250
0.495,-0.203,-0.511,43.335,-76.172,-43.762
0.464,-0.232,-0.638,46.570,-76.111,-42.053
0.494,-0.238,-0.712,44.434,-81.787,-35.034
0.495,-0.173,-0.760,43.579,-96.680,-21.606
0.487,-0.097,-0.782,45.410,-115.601,-11.169
0.500,-0.036,-0.773,45.898,-131.165,-6.470
0.543,0.000,-0.776,42.969,-143.188,-5.615
0.556,0.018,-0.765,37.842,-154.053,-8.118
0.579,0.100,-0.690,28.625,-162.537,-12.024
0.589,0.070,-0.633,20.264,-167.297,-18.982
0.608,0.018,-0.530,15.747,-168.884,-27.222
0.685,-0.040,-0.491,10.193,-165.283,-33.569
0.641,-0.033,-0.418,6.287,-161.316,-36.255
0.664,-0.073,-0.369,5.798,-157.654,-34.973
0.716,-0.073,-0.333,10.132,-154.602,-31.250
0.720,-0.066,-0.365,20.935,-156.433,-25.757
0.710,-0.042,-0.404,35.461,-164.917,-18.677
0.722,-0.049,-0.457,45.166,-175.537,-10.376
0.857,0.009,-0.404,45.776,-186.707,-0.671
0.979,0.081,-0.230,39.490,-194.153,2.197
1.014,0.037,-0.095,33.997,-190.796,-7.263
0.988,-0.072,-0.005,26.306,-177.002,-18.616
0.993,-0.138,0.087,13.550,-156.189,-21.484
1.016,-0.157,0.161,0.671,-131.897,-18.372
1.017,-0.167,0.170,-6.226,-108.521,-15.442

1.499,-0.506,1.194,-24.170,79.895,23.437
1.551,-0.550,1.517,-40.588,111.633,31.555
1.577,-0.550,1.745,-56.335,159.302,40.039
1.519,-0.522,1.840,-62.317,216.309,43.701
1.462,-0.445,1.837,-56.274,271.606,45.044
1.373,-0.368,1.712,-38.208,320.801,43.396
1.151,-0.345,1.449,-14.099,362.854,37.964
0.847,-0.330,1.128,8.484,393.921,33.325
0.534,-0.290,0.825,29.663,411.560,35.217
0.208,-0.270,0.479,50.415,420.715,41.687
-0.026,-0.266,-0.014,64.331,423.401,52.856
-0.241,-0.199,-0.375,63.110,418.701,68.909
-0.505,-0.134,-0.604,51.025,407.837,86.548
-0.665,-0.073,-0.822,35.950,397.278,103.760
-0.795,0.115,-0.967,26.245,381.226,122.314
-0.962,0.388,-1.013,26.489,359.436,134.705
-1.170,0.750,-1.003,39.001,340.271,131.836
-1.462,1.126,-1.146,60.974,332.397,110.840
-1.631,1.235,-1.984,79.956,336.121,70.801
-1.711,0.841,-3.510,59.753,340.881,38.086
-2.290,2.081,-4.000,23.193,235.168,74.951
-1.583,1.073,-2.825,104.919,-16.907,40.100
-0.938,0.609,-2.132,128.174,-61.035,12.146
-0.095,0.315,-2.020,56.519,-63.599,19.348
0.299,0.394,-1.527,-15.930,-106.384,39.734
0.371,0.355,-0.849,-52.002,-135.864,38.208
0.679,0.178,-0.578,-74.036,-131.042,17.700
0.822,0.184,-0.287,-86.060,-123.535,7.080
0.877,0.069,-0.163,-69.458,-121.216,-6.042
0.884,-0.000,-0.132,-52.185,-111.877,-17.578
0.884,-0.045,-0.174,-38.452,-98.633,-25.452
0.829,-0.064,-0.226,-25.940,-86.182,-30.151
0.761,-0.080,-0.285,-13.855,-74.768,-32.776
0.696,-0.073,-0.362,-5.493,-61.584,-32.776
0.637,-0.058,-0.454,0.732,-49.011,-30.640
0.594,-0.037,-0.561,6.042,-39.001,-27.222
0.572,-0.004,-0.671,9.216,-32.288,-22.827
0.568,0.044,-0.755,10.925,-30.090,-18.616
0.564,0.091,-0.806,12.512,-31.250,-15.137
0.560,0.134,-0.834,13.184,-34.058,-13.489
0.560,0.168,-0.852,12.329,-36.499,-13.550
0.560,0.205,-0.855,10.498,-39.246,-14.282
0.566,0.220,-0.862,7.935,-41.321,-16.296
0.569,0.235,-0.876,4.333,-43.213,-18.616
0.576,0.257,-0.883,1.953,-47.363,-20.081
0.596,0.255,-0.895,1.404,-54.321,-21.729
0.607,0.259,-0.905,-0.854,-62.256,-23.254
0.635,0.270,-0.906,-3.418,-72.083,-24.170
0.672,0.270,-0.886,-4.639,-83.740,-25.391
0.729,0.272,-0.866,-5.798,-95.764,-27.893
0.786,0.260,-0.838,-7.385,-107.483,-31.982
0.745,0.172,-0.777,-10.925,-118.347,-38.879
0.655,0.144,-0.660,-16.968,-123.962,-43.152
0.640,0.157,-0.567,-16.968,-123.413,-42.603
0.663,0.158,-0.530,-10.559,-118.103,-42.847
0.676,0.118,-0.533,-2.075,-113.708,-44.434
0.650,0.086,-0.530,3.906,-110.596,-44.617
0.655,0.061,-0.523,7.446,-108.093,-41.321
0.693,0.064,-0.487,11.108,-106.812,-35.645
0.718,0.073,-0.444,14.771,-104.614,-31.921

1.744,-0.583,1.049,-28.748,-72.876,-30.273
1.817,-0.675,1.543,-31.311,-62.805,-20.630
1.801,-0.757,2.022,-39.673,-32.471,-9.216
1.766,-0.759,2.356,-50.720,25.696,1.160
1.707,-0.618,2.470,-57.800,104.492,9.399
1.548,-0.540,2.328,-45.105,178.345,10.742
1.284,-0.457,2.044,-16.113,235.107,8.118
0.991,-0.353,1.692,20.386,273.437,5.981
0.695,-0.229,1.360,54.260,298.828,4.150
0.384,-0.144,1.069,76.233,320.312,3.235
0.119,-0.074,0.758,85.449,336.792,5.554
-0.172,-0.071,0.426,79.163,356.445,9.277
-0.422,-0.051,0.053,60.303,379.639,16.541
-0.619,0.020,-0.334,41.443,396.973,27.771
-0.738,0.174,-0.716,26.184,405.151,39.001
-0.855,0.318,-1.094,14.648,404.968,46.753
-1.039,0.498,-1.470,1.160,401.367,48.157
-1.234,0.614,-1.931,-13.977,401.001,42.603
-1.363,0.681,-2.463,-34.729,402.466,31.799
-1.339,0.713,-3.025,-61.951,394.287,16.479
-1.254,0.627,-3.568,-86.914,352.966,3.845
-0.963,0.595,-3.773,-97.229,253.174,0.488
-0.654,0.616,-3.437,-83.923,107.056,0.977
-0.412,0.511,-2.676,-48.279,-37.415,-10.681
-0.206,0.247,-1.769,-11.780,-148.743,-33.020
-0.035,-0.083,-0.905,11.841,-217.712,-53.589
0.119,-0.419,-0.225,25.085,-243.896,-65.369
0.210,-0.616,0.189,35.645,-233.215,-63.354
0.333,-0.681,0.227,36.499,-185.852,-51.941
0.473,-0.691,0.190,19.348,-130.066,-41.199
0.563,-0.638,0.100,3.845,-93.750,-30.396
0.606,-0.596,-0.004,5.859,-79.041,-22.156
0.618,-0.574,-0.093,15.686,-74.097,-13.855
0.621,-0.536,-0.176,25.391,-70.618,-4.883
0.648,-0.477,-0.275,33.508,-67.627,5.432
0.650,-0.372,-0.360,37.537,-63.477,16.785
0.656,-0.263,-0.440,36.133,-56.824,26.184
0.664,-0.151,-0.528,30.029,-48.401,32.959
0.670,-0.035,-0.617,20.935,-39.124,36.743
0.679,0.067,-0.699,11.475,-33.142,36.804
0.679,0.160,-0.765,4.761,-31.738,32.166
0.668,0.220,-0.817,1.953,-35.645,23.682
0.636,0.238,-0.858,1.221,-42.542,11.292
0.609,0.216,-0.897,0.732,-51.208,-1.892
0.595,0.170,-0.930,1.038,-61.829,-12.512
0.588,0.122,-0.932,1.282,-75.500,-20.142
0.580,0.062,-0.900,2.258,-90.820,-25.269
0.570,-0.003,-0.848,1.099,-104.553,-27.405
0.560,-0.061,-0.778,-3.052,-116.272,-25.879
0.566,-0.103,-0.693,-9.705,-125.366,-21.057
0.590,-0.125,-0.603,-16.968,-130.859,-14.221
0.646,-0.113,-0.534,-23.682,-133.606,-7.690
0.708,-0.096,-0.472,-28.259,-135.803,-3.967
0.753,-0.066,-0.407,-29.236,-138.184,-3.540
0.791,-0.053,-0.342,-24.719,-141.907,-6.165
0.828,-0.081,-0.294,-15.381,-146.057,-11.658
0.854,-0.141,-0.261,-5.859,-148.621,-17.395
0.881,-0.194,-0.218,-0.671,-148.437,-20.386
0.913,-0.241,-0.164,1.343,-147.339,-19.226
0.944,-0.283,-0.108,0.916,-144.470,-14.404

1.850,-0.769,0.867,-73.547,-26.855,31.860
1.868,-0.753,1.425,-106.079,-14.526,48.584
1.896,-0.571,2.051,-128.174,19.043,63.171
1.885,-0.384,2.475,-126.221,76.233,66.711
1.778,-0.265,2.513,-101.685,147.705,57.007
1.571,-0.193,2.259,-62.988,211.243,42.908
1.282,-0.148,1.907,-21.851,256.775,31.311
0.963,-0.099,1.553,7.080,292.236,24.353
0.656,-0.036,1.185,20.020,325.073,21.362
0.296,0.067,0.884,17.273,358.948,18.921
-0.152,0.148,0.586,6.348,398.804,13.916
-0.594,0.168,0.137,-5.371,446.350,7.507
-0.906,0.208,-0.533,-16.418,494.202,3.845
-1.260,0.436,-1.133,-26.001,522.339,0.244
-1.563,0.556,-1.648,-21.484,523.682,-14.587
-1.724,0.616,-2.242,0.061,501.587,-35.583
-1.773,0.547,-2.980,22.766,450.562,-54.688
-1.706,0.276,-3.687,32.593,365.906,-66.528
-1.449,-0.038,-4.000,23.376,253.540,-59.082
-1.060,-0.101,-3.718,8.850,113.525,-26.428
-0.686,-0.071,-2.753,1.648,-24.780,9.644
-0.280,-0.005,-1.750,-10.498,-119.812,31.738
0.058,0.011,-0.984,-19.470,-168.091,38.025
0.383,0.078,-0.363,-13.306,-189.941,31.921
0.528,-0.080,0.039,1.526,-179.138,12.329
0.634,-0.311,0.174,11.353,-142.883,-8.911
0.658,-0.465,0.203,14.099,-106.689,-14.587
0.665,-0.523,0.158,15.442,-74.707,-7.874
0.693,-0.482,0.059,16.052,-46.509,4.150
0.702,-0.377,-0.074,19.165,-24.841,15.259
0.686,-0.273,-0.238,28.748,-11.902,21.729
0.671,-0.180,-0.418,41.992,-7.324,23.682
0.638,-0.092,-0.581,52.673,-7.996,22.583
0.610,-0.015,-0.721,58.594,-10.498,19.226
0.577,0.040,-0.844,60.120,-14.893,14.343
0.542,0.072,-0.946,58.167,-21.423,9.277
0.528,0.099,-1.021,53.589,-30.273,5.737
0.503,0.100,-1.055,47.058,-42.114,3.235
0.490,0.093,-1.051,39.063,-55.115,2.075
0.494,0.091,-1.030,29.968,-66.833,3.235
0.507,0.120,-0.988,19.531,-77.393,5.615
0.531,0.168,-0.925,10.559,-87.463,7.812
0.576,0.210,-0.872,6.287,-97.717,7.690
0.613,0.251,-0.817,5.676,-108.582,5.249
0.650,0.276,-0.759,6.653,-118.469,0.000
0.685,0.275,-0.703,8.850,-126.953,-6.775
0.714,0.271,-0.658,10.681,-133.057,-14.526
0.733,0.252,-0.623,11.475,-137.146,-22.766
0.743,0.202,-0.594,11.292,-139.526,-31.067
0.750,0.127,-0.565,9.094,-140.381,-37.720
0.752,0.036,-0.523,5.737,-140.442,-41.321
0.754,-0.034,-0.460,1.892,-141.357,-40.833
0.782,-0.087,-0.398,-1.892,-141.296,-36.804
0.786,-0.117,-0.335,-5.615,-139.648,-31.555
0.817,-0.138,-0.289,-8.789,-136.108,-25.940
0.856,-0.125,-0.257,-10.986,-132.324,-20.020
0.911,-0.083,-0.226,-10.925,-129.822,-15.198
0.943,-0.034,-0.180,-7.812,-130.371,-12.634
0.980,0.012,-0.131,-2.808,-130.920,-12.878
1.008,0.036,-0.102,2.502,-130.798,-15.808

1.615,-0.605,0.660,19.836,-20.691,-29.907
1.611,-0.730,0.879,17.761,-12.451,-22.156
1.576,-0.822,1.138,10.376,5.188,-8.911
1.552,-0.844,1.405,0.793,34.851,8.911
1.552,-0.812,1.654,-7.141,76.904,28.809
1.515,-0.723,1.935,-12.451,125.244,46.753
1.410,-0.613,2.194,-11.902,180.725,60.852
1.234,-0.489,2.240,-7.141,249.084,70.313
0.983,-0.390,2.093,-1.221,325.500,73.975
0.703,-0.283,1.725,2.136,398.193,75.806
0.385,-0.201,1.234,4.578,456.482,77.209
0.113,-0.069,0.755,4.700,491.943,80.200
-0.144,0.133,0.446,4.211,505.249,81.787
-0.450,0.336,0.262,11.719,505.188,77.209
-0.769,0.518,0.006,25.024,511.414,62.927
-1.108,0.692,-0.254,38.574,526.978,41.382
-1.499,0.895,-0.591,57.556,540.283,18.799
-1.840,0.904,-1.380,80.811,548.523,-7.751
-2.050,0.758,-2.670,98.389,539.978,-37.231
-2.303,0.477,-3.962,99.060,484.070,-60.242
-2.158,0.346,-4.000,86.426,354.675,-51.086
-1.784,0.348,-4.000,84.656,153.076,-9.644
-1.303,0.134,-3.308,66.833,-38.940,32.166
-0.834,0.312,-2.422,28.992,-148.071,66.284
-0.413,0.407,-1.585,-8.606,-197.998,83.252
-0.022,0.373,-0.951,-33.447,-209.229,67.505
0.184,0.207,-0.546,-49.072,-189.697,40.100
0.443,0.144,-0.273,-53.589,-162.231,16.357
0.597,0.002,-0.107,-46.692,-141.724,-1.221
0.617,-0.141,-0.010,-30.823,-125.488,-15.076
0.621,-0.223,0.039,-21.240,-105.103,-20.874
0.592,-0.269,0.008,-16.724,-79.529,-21.851
0.552,-0.285,-0.097,-13.184,-53.833,-18.555
0.513,-0.283,-0.269,-9.094,-31.799,-13.367
0.475,-0.264,-0.466,-5.005,-16.602,-7.202
0.442,-0.217,-0.636,-3.235,-8.789,-0.793
0.398,-0.144,-0.769,-2.136,-8.179,5.188
0.371,-0.082,-0.889,0.793,-13.306,10.071
0.356,-0.014,-0.963,4.028,-22.400,13.489
0.348,0.045,-1.011,7.324,-33.020,15.442
0.357,0.119,-1.048,10.376,-45.044,15.991
0.396,0.213,-1.079,13.062,-58.716,14.465
0.434,0.268,-1.099,14.954,-73.914,8.850
0.443,0.285,-1.078,14.038,-89.600,1.160
0.462,0.276,-1.023,9.399,-103.699,-5.920
0.488,0.255,-0.966,2.930,-113.953,-12.024
0.514,0.230,-0.908,-4.700,-121.155,-16.968
0.548,0.197,-0.842,-11.414,-126.953,-20.874
0.570,0.142,-0.785,-16.785,-132.202,-24.048
0.577,0.097,-0.712,-21.484,-137.146,-25.818
0.598,0.069,-0.645,-24.231,-140.747,-25.879
0.631,0.057,-0.601,-23.682,-142.639,-25.269
0.665,0.057,-0.564,-22.217,-144.165,-25.146
0.711,0.057,-0.534,-19.531,-145.630,-25.818
0.765,0.066,-0.527,-15.381,-147.278,-27.588
0.797,0.061,-0.507,-11.230,-150.818,-30.518
0.803,0.038,-0.463,-7.874,-155.273,-33.447
0.808,0.003,-0.413,-7.141,-156.860,-35.522
0.805,-0.035,-0.363,-9.766,-155.029,-35.828
0.806,-0.072,-0.323,-14.587,-150.452,-34.607

1.686,-0.590,1.180,7.568,38.879,15.503
1.790,-0.644,1.597,0.671,66.711,23.621
1.826,-0.724,1.933,-4.395,113.220,29.602
1.777,-0.736,2.018,-5.798,175.903,36.255
1.644,-0.672,1.840,0.183,239.380,43.457
1.465,-0.553,1.550,15.442,288.940,51.086
1.255,-0.360,1.244,32.898,321.350,59.387
0.973,-0.217,0.965,49.255,339.722,64.941
0.657,-0.123,0.706,56.824,354.858,67.993
0.335,-0.066,0.417,52.185,373.962,71.411
0.031,-0.035,0.092,36.560,395.447,76.965
-0.219,0.045,-0.223,11.353,415.710,85.205
-0.401,0.207,-0.428,-15.442,429.199,92.651
-0.682,0.589,-0.541,-35.950,439.941,92.651
-1.014,1.010,-0.793,-36.499,455.383,71.228
-1.422,1.321,-1.328,-8.545,464.233,26.611
-1.857,1.433,-2.277,29.785,457.153,-31.006
-2.360,1.165,-3.539,48.706,418.701,-90.881
-2.434,0.307,-4.000,43.518,329.712,-112.427
-2.540,0.206,-4.000,30.151,202.698,-45.471
-1.847,0.158,-3.883,-11.963,20.996,-12.268
-1.232,-0.062,-2.526,-12.390,-152.954,9.705
-0.732,-0.084,-1.343,-17.578,-255.798,42.175
-0.263,-0.052,-0.508,-32.288,-286.316,55.664
0.060,-0.178,0.014,-33.386,-267.822,47.852
0.436,-0.164,0.234,-32.166,-226.074,35.706
0.613,-0.224,0.308,-27.771,-184.143,24.475
0.681,-0.289,0.240,-14.526,-150.330,12.390
0.737,-0.295,0.106,-0.549,-125.122,6.592
0.727,-0.301,-0.072,11.230,-105.164,2.380
0.683,-0.297,-0.269,22.644,-92.346,0.183
0.658,-0.272,-0.442,32.776,-88.501,0.610
0.610,-0.235,-0.552,38.452,-90.210,2.686
0.592,-0.195,-0.603,39.551,-94.849,6.348
0.590,-0.150,-0.616,36.987,-99.487,12.024
0.604,-0.094,-0.616,31.067,-103.455,17.578
0.618,-0.006,-0.598,23.437,-105.225,22.339
0.641,0.087,-0.588,17.578,-104.980,23.987
0.682,0.170,-0.599,16.235,-105.652,22.034
0.714,0.235,-0.616,18.738,-108.826,17.334
0.724,0.270,-0.621,21.912,-113.098,10.437
0.731,0.290,-0.622,24.719,-117.188,2.563
0.753,0.303,-0.640,26.733,-120.361,-4.211
0.776,0.298,-0.666,27.039,-123.413,-11.169
0.796,0.277,-0.668,24.902,-127.319,-16.602
0.809,0.242,-0.645,20.264,-131.897,-20.142
0.823,0.218,-0.603,14.038,-134.888,-21.301
0.863,0.218,-0.563,6.958,-136.047,-20.813
0.907,0.234,-0.529,1.038,-135.925,-21.118
0.953,0.237,-0.500,-1.770,-137.085,-23.376
0.979,0.223,-0.447,-2.563,-141.663,-26.917
0.982,0.196,-0.377,-2.686,-145.996,-31.006
0.993,0.157,-0.303,-2.075,-147.400,-35.217
1.002,0.126,-0.215,-0.610,-147.888,-37.720
1.021,0.079,-0.133,1.099,-147.095,-38.879
1.037,0.041,-0.049,0.977,-143.127,-38.696
1.049,0.013,0.042,-1.770,-135.254,-37.170
1.060,-0.018,0.108,-4.700,-123.840,-34.851
1.056,-0.052,0.135,-7.935,-108.521,-32.349
1.050,-0.069,0.119,-11.597,-91.553,-29.114

1.828,-0.509,0.910,1.831,18.311,14.954
1.978,-0.594,1.448,-5.188,29.297,27.771
2.069,-0.636,1.974,-7.812,59.326,39.307
2.017,-0.626,2.290,-1.892,112.976,46.753
1.911,-0.487,2.209,14.771,180.298,53.772
1.719,-0.322,1.844,38.940,239.929,59.082
1.417,-0.193,1.420,58.533,281.982,60.303
1.026,-0.052,1.146,64.819,310.303,62.134
0.573,0.017,0.897,62.866,334.412,65.430
0.121,0.127,0.564,52.063,365.051,70.313
-0.260,0.254,0.141,34.241,399.414,76.050
-0.666,0.411,-0.281,15.625,430.847,78.552
-1.083,0.686,-0.729,4.028,454.102,75.928
-1.547,0.971,-1.234,7.507,468.079,60.181
-1.993,1.240,-1.961,23.315,470.093,33.508
-2.338,1.211,-3.082,43.030,448.364,-0.732
-2.376,0.928,-4.000,36.438,397.034,-32.898
-2.195,0.472,-4.000,-2.686,298.279,-40.527
-1.580,0.482,-4.000,-34.851,116.516,0.366
-0.972,0.443,-3.154,-40.771,-73.547,36.133
-0.486,0.306,-1.768,-42.664,-203.674,46.326
-0.026,0.122,-0.619,-41.992,-262.695,40.466
0.355,0.050,0.194,-48.706,-247.009,23.621
0.553,-0.212,0.455,-52.368,-181.580,-0.488
0.689,-0.375,0.376,-53.162,-114.197,-13.306
0.740,-0.464,0.182,-49.133,-68.787,-13.245
0.751,-0.474,0.003,-39.246,-45.227,-6.531
0.747,-0.446,-0.143,-27.893,-33.752,0.732
0.726,-0.401,-0.250,-16.052,-29.419,7.812
0.703,-0.342,-0.339,-6.104,-26.855,13.977
0.674,-0.258,-0.434,0.427,-23.743,18.250
0.653,-0.175,-0.537,5.676,-21.301,20.447
0.621,-0.110,-0.622,9.888,-21.240,20.081
0.600,-0.042,-0.690,13.855,-23.682,18.921
0.596,0.023,-0.745,18.799,-27.832,17.029
0.593,0.079,-0.786,23.865,-33.264,13.855
0.589,0.131,-0.812,28.870,-39.856,10.376
0.600,0.176,-0.824,33.264,-46.387,6.531
0.615,0.219,-0.839,36.011,-51.514,3.235
0.639,0.254,-0.870,35.278,-54.688,0.000
0.645,0.280,-0.894,30.884,-56.396,-2.869
0.652,0.291,-0.904,23.743,-58.289,-5.615
0.671,0.293,-0.900,16.235,-61.340,-7.568
0.696,0.288,-0.876,9.521,-66.162,-8.240
0.728,0.281,-0.827,3.235,-71.594,-8.789
0.759,0.278,-0.769,-2.014,-75.745,-9.888
0.800,0.276,-0.704,-5.920,-77.759,-12.024
0.835,0.257,-0.640,-7.812,-78.552,-15.320
0.859,0.223,-0.590,-7.935,-78.125,-19.348
0.884,0.189,-0.554,-7.080,-76.416,-23.437
0.901,0.171,-0.525,-4.883,-74.402,-26.917
0.905,0.155,-0.503,-1.160,-72.571,-30.640
0.896,0.123,-0.492,3.601,-70.313,-34.424
0.894,0.082,-0.491,7.324,-67.566,-36.987
0.879,0.031,-0.499,8.667,-63.843,-37.231
0.864,0.004,-0.505,7.629,-59.326,-35.828
0.865,-0.010,-0.522,5.493,-55.786,-33.142
0.868,-0.023,-0.536,1.892,-52.673,-29.053
0.854,-0.039,-0.544,-2.930,-50.110,-24.719
0.831,-0.048,-0.539,-8.240,-47.913,-19.470

1.931,-0.604,1.291,-29.358,-84.351,49.927
2.357,-0.401,2.086,-31.677,-57.861,70.435
2.585,-0.179,2.716,-22.644,-5.676,76.111
2.622,0.024,2.893,-5.188,75.623,67.322
2.502,0.223,2.464,18.677,169.739,50.476
2.223,0.336,1.761,46.509,244.141,28.198
1.762,0.402,1.155,70.435,282.715,7.202
1.304,0.455,0.731,83.374,303.101,-6.226
0.865,0.483,0.447,83.374,319.580,-14.465
0.420,0.455,0.203,76.355,337.341,-18.616
0.012,0.528,-0.064,62.805,359.619,-15.991
-0.293,0.638,-0.433,46.021,382.690,-13.184
-0.587,0.832,-0.811,37.048,395.508,-13.794
-0.925,1.005,-1.225,42.542,392.395,-24.231
-1.385,1.046,-1.662,56.091,380.432,-45.105
-1.820,0.939,-2.298,66.589,366.760,-69.885
-2.070,0.789,-3.099,60.181,343.750,-87.769
-2.280,0.344,-3.954,36.255,293.579,-90.820
-1.845,0.159,-4.000,0.549,196.716,-54.932
-1.186,0.248,-3.654,-17.151,47.607,3.906
-0.726,0.218,-2.590,-19.775,-89.783,35.645
-0.213,0.165,-1.564,-28.687,-177.185,46.204
0.157,-0.023,-0.744,-28.137,-222.961,42.969
0.622,0.038,-0.095,-28.748,-221.436,31.006
0.777,-0.146,0.337,-27.771,-187.195,9.277
0.951,-0.342,0.548,-21.729,-137.817,-10.010
1.045,-0.403,0.568,-17.273,-86.731,-14.648
1.032,-0.457,0.442,-10.132,-41.992,-14.526
0.995,-0.444,0.229,-0.732,-7.690,-9.888
0.943,-0.374,-0.010,11.963,13.489,-3.296
0.858,-0.303,-0.220,26.550,24.109,1.709
0.750,-0.219,-0.387,38.269,29.724,6.165
0.649,-0.116,-0.547,45.715,33.569,9.827
0.555,-0.006,-0.713,49.255,36.621,13.306
0.484,0.107,-0.883,48.096,38.635,15.076
0.434,0.227,-1.038,44.373,36.621,15.503
0.416,0.336,-1.187,39.673,28.503,14.160
0.402,0.413,-1.280,35.095,13.977,10.986
0.395,0.467,-1.313,29.297,-3.601,6.165
0.403,0.498,-1.299,22.400,-21.057,0.610
0.424,0.507,-1.243,15.686,-36.804,-5.005
0.450,0.495,-1.168,7.996,-49.561,-11.536
0.475,0.472,-1.097,0.671,-59.570,-18.005
0.506,0.448,-1.033,-4.639,-67.322,-23.560
0.531,0.418,-0.979,-8.301,-73.669,-29.602
0.539,0.372,-0.932,-11.108,-78.369,-36.255
0.540,0.310,-0.891,-13.672,-82.214,-42.480
0.536,0.230,-0.860,-15.686,-85.632,-47.119
0.523,0.153,-0.834,-17.639,-88.135,-49.744
0.519,0.088,-0.809,-19.226,-90.027,-49.133
0.516,0.021,-0.787,-20.691,-91.614,-46.753
0.521,-0.033,-0.772,-23.010,-92.407,-42.175
0.536,-0.072,-0.754,-26.550,-93.506,-35.889
0.554,-0.095,-0.718,-29.968,-96.069,-28.381
0.578,-0.095,-0.670,-32.227,-98.267,-19.836
0.622,-0.085,-0.621,-33.264,-100.159,-11.780
0.657,-0.059,-0.574,-33.691,-100.342,-5.127
0.697,-0.029,-0.537,-33.020,-99.304,-1.221
0.743,0.005,-0.521,-30.273,-98.694,0.977
0.774,0.031,-0.506,-26.672,-98.938,1.099

1.970,-0.093,0.953,-10.315,-0.366,16.113
2.162,-0.082,1.322,-9.033,11.230,11.841
2.254,-0.054,1.721,-5.005,34.058,3.418
2.178,-0.096,1.883,5.798,77.698,-9.827
1.959,-0.217,1.710,26.428,131.897,-26.001
1.700,-0.298,1.359,52.673,176.147,-33.447
1.395,-0.328,1.029,73.730,205.505,-30.823
1.030,-0.334,0.775,82.520,227.234,-21.851
0.690,-0.287,0.521,78.369,249.268,-7.568
0.413,-0.206,0.279,66.956,271.179,10.010
0.188,-0.099,0.004,50.964,291.748,28.381
-0.004,0.025,-0.217,32.593,309.204,43.762
-0.189,0.128,-0.431,19.165,319.763,56.030
-0.349,0.230,-0.658,10.376,324.341,65.063
-0.498,0.323,-0.906,3.052,325.684,69.824
-0.634,0.439,-1.119,-1.587,322.998,72.327
-0.749,0.572,-1.326,-1.709,314.514,70.923
-0.843,0.714,-1.533,2.258,302.551,62.317
-0.903,0.783,-1.813,11.353,287.109,44.373
-1.025,0.766,-2.181,22.156,263.672,21.179
-1.037,0.696,-2.573,28.687,225.586,4.028
-0.876,0.587,-2.905,28.198,168.457,-5.798
-0.765,0.508,-2.949,22.278,86.548,-8.179
-0.551,0.421,-2.688,17.151,-4.333,-5.249
-0.333,0.262,-2.251,5.066,-76.233,-5.676
-0.180,0.150,-1.741,-16.602,-127.686,-4.639
0.029,0.085,-1.292,-36.011,-159.363,-1.587
0.189,0.004,-0.863,-44.312,-180.054,-0.854
0.368,-0.022,-0.497,-41.870,-188.049,-1.160
0.515,-0.029,-0.203,-33.203,-183.411,-2.869
0.612,-0.081,-0.011,-19.470,-168.274,-8.118
0.687,-0.109,0.054,-5.798,-144.958,-13.550
0.742,-0.112,0.006,4.883,-117.004,-17.517
0.744,-0.119,-0.125,13.855,-90.393,-21.057
0.723,-0.124,-0.296,20.813,-69.885,-22.522
0.690,-0.124,-0.468,25.330,-57.312,-21.057
0.657,-0.125,-0.611,26.917,-51.819,-16.968
0.639,-0.117,-0.717,23.743,-51.453,-10.864
0.622,-0.099,-0.766,16.602,-54.443,-3.296
0.629,-0.057,-0.774,6.775,-58.716,4.150
0.664,0.025,-0.756,-2.991,-62.683,11.292
0.703,0.093,-0.730,-10.193,-67.627,14.771
0.722,0.139,-0.687,-14.404,-73.303,13.855
0.744,0.173,-0.645,-15.381,-79.285,10.620
0.768,0.188,-0.625,-13.672,-83.618,5.920
0.784,0.184,-0.610,-11.230,-87.646,0.488
0.788,0.150,-0.575,-9.338,-92.529,-3.845
0.778,0.109,-0.523,-9.888,-95.825,-6.165
0.766,0.067,-0.476,-13.672,-95.276,-5.981
0.769,0.046,-0.450,-18.860,-91.248,-3.418
0.789,0.071,-0.456,-24.475,-85.510,0.610
0.814,0.109,-0.472,-27.771,-81.665,3.723
0.842,0.129,-0.475,-26.611,-82.947,4.395
0.878,0.147,-0.458,-23.621,-87.830,3.845
0.899,0.178,-0.421,-19.531,-93.323,1.953
0.915,0.193,-0.386,-14.343,-97.595,-2.014
0.917,0.178,-0.348,-9.277,-99.243,-7.446
0.916,0.138,-0.324,-6.653,-98.206,-12.756
0.886,0.081,-0.299,-7.202,-94.788,-16.541
0.857,0.024,-0.292,-10.437,-88.623,-17.334

1.650,-0.219,0.963,16.357,17.578,1.465
1.697,-0.227,1.163,13.672,38.574,3.967
1.720,-0.204,1.332,9.827,70.007,5.859
1.702,-0.235,1.407,13.306,105.652,4.395
1.625,-0.241,1.375,22.461,138.550,4.761
1.535,-0.262,1.280,33.508,168.152,7.568
1.423,-0.235,1.217,42.358,191.833,13.062
1.264,-0.200,1.141,48.584,213.501,20.447
1.042,-0.168,1.017,52.063,236.267,26.550
0.785,-0.087,0.862,50.171,261.536,33.691
0.496,-0.022,0.648,46.387,288.635,39.124
0.229,0.095,0.415,41.382,313.660,43.884
0.033,0.280,0.237,34.180,334.290,48.767
-0.211,0.418,0.097,28.259,353.638,47.852
-0.496,0.505,-0.045,24.719,375.305,41.870
-0.827,0.674,-0.225,24.597,401.550,34.729
-1.086,0.815,-0.611,28.870,431.152,22.766
-1.458,0.836,-1.295,39.307,458.801,2.258
-1.756,0.738,-2.468,45.715,475.952,-24.292
-1.845,0.737,-3.662,40.894,446.350,-43.274
-1.783,0.479,-4.000,41.687,335.876,-35.706
-1.830,0.676,-4.000,78.552,187.988,52.551
-1.444,1.008,-3.798,60.547,33.264,91.125
-0.903,0.809,-2.935,12.939,-95.459,44.495
-0.615,0.408,-2.127,-24.780,-166.748,7.568
-0.365,0.280,-1.489,-66.345,-202.087,4.761
-0.067,0.181,-1.003,-90.576,-219.116,1.282
0.253,0.190,-0.565,-90.881,-231.750,-5.249
0.445,0.040,-0.211,-72.876,-237.244,-22.827
0.568,-0.115,0.083,-47.119,-231.873,-39.490
0.695,-0.192,0.310,-26.184,-215.149,-47.241
0.809,-0.260,0.411,-10.071,-185.120,-51.514
0.875,-0.332,0.374,1.343,-147.644,-53.955
0.901,-0.382,0.225,8.423,-110.657,-52.734
0.898,-0.406,0.027,13.000,-80.200,-46.387
0.878,-0.419,-0.185,15.930,-58.533,-37.109
0.857,-0.414,-0.354,16.113,-45.715,-24.658
0.852,-0.362,-0.462,13.306,-40.222,-10.498
0.852,-0.281,-0.520,8.362,-38.208,2.258
0.850,-0.192,-0.548,3.540,-37.659,12.756
0.849,-0.092,-0.554,-0.732,-36.743,20.691
0.863,0.021,-0.565,-3.784,-34.790,25.085
0.876,0.117,-0.586,-5.249,-32.837,25.146
0.865,0.179,-0.611,-5.859,-31.189,20.874
0.838,0.214,-0.638,-6.287,-30.518,14.526
0.818,0.228,-0.669,-5.737,-30.823,7.996
0.804,0.231,-0.711,-5.249,-32.104,1.709
0.788,0.233,-0.734,-5.981,-35.034,-3.052
0.770,0.213,-0.737,-6.409,-39.307,-7.324
0.759,0.185,-0.739,-7.202,-43.579,-10.925
0.760,0.179,-0.748,-9.583,-47.729,-12.878
0.767,0.178,-0.747,-10.986,-53.406,-14.404
0.773,0.161,-0.725,-11.353,-60.364,-15.869
0.775,0.146,-0.692,-12.573,-67.017,-17.700
0.775,0.130,-0.660,-13.855,-71.838,-18.677
0.778,0.101,-0.622,-14.954,-75.439,-19.836
0.772,0.067,-0.572,-16.357,-78.979,-20.142
0.772,0.046,-0.536,-18.066,-79.834,-18.799
0.781,0.036,-0.511,-20.142,-79.773,-16.724
0.808,0.030,-0.501,-21.362,-79.773,-14.954

1.820,-0.137,1.174,-14.221,32.593,13.000
1.892,-0.104,1.464,-14.587,49.377,11.536
1.928,-0.061,1.687,-9.644,75.134,7.996
1.899,-0.046,1.777,-0.793,108.521,1.526
1.740,-0.122,1.698,10.864,145.752,-6.042
1.520,-0.208,1.538,21.240,182.739,-9.583
1.240,-0.259,1.363,30.334,213.440,-4.944
0.937,-0.289,1.086,34.668,242.187,5.615
0.653,-0.271,0.744,26.855,273.193,21.973
0.388,-0.243,0.420,8.240,299.927,40.649
0.178,-0.173,0.126,-15.930,318.481,61.157
0.024,-0.010,-0.035,-40.955,328.613,80.933
-0.086,0.168,-0.047,-56.091,330.872,94.116
-0.219,0.382,-0.040,-56.763,335.449,96.985
-0.361,0.515,-0.177,-42.297,345.459,88.379
-0.561,0.559,-0.455,-16.968,359.253,68.848
-0.807,0.611,-0.769,12.268,369.080,46.997
-1.139,0.633,-1.042,46.021,370.850,25.146
-1.413,0.673,-1.397,73.547,375.427,3.662
-1.565,0.653,-1.918,91.980,378.845,-15.015
-1.544,0.546,-2.571,98.328,364.868,-29.846
-1.352,0.421,-3.222,90.576,319.885,-36.316
-0.949,0.388,-3.758,74.341,240.356,-32.715
-0.624,0.359,-3.873,57.434,123.962,-27.832
-0.408,0.304,-3.361,44.678,-8.545,-25.391
-0.268,0.228,-2.509,23.865,-122.925,-26.672
-0.174,0.208,-1.670,-5.005,-199.707,-27.527
0.001,0.186,-1.031,-25.513,-235.474,-30.945
0.130,0.108,-0.546,-33.630,-242.065,-39.063
0.218,-0.049,-0.213,-32.593,-231.201,-47.913
0.407,-0.061,0.047,-27.832,-210.937,-48.950
0.514,-0.114,0.167,-15.198,-184.448,-48.950
0.574,-0.203,0.124,-2.625,-150.757,-51.331
0.615,-0.238,-0.022,2.197,-116.333,-49.072
0.635,-0.224,-0.198,4.700,-90.515,-42.542
0.629,-0.199,-0.379,8.606,-74.707,-35.339
0.607,-0.175,-0.532,10.559,-66.650,-29.419
0.585,-0.157,-0.652,9.521,-64.026,-23.437
0.576,-0.135,-0.737,5.127,-65.369,-17.456
0.576,-0.097,-0.771,-0.488,-71.045,-11.597
0.590,-0.054,-0.759,-5.188,-79.773,-6.714
0.619,-0.019,-0.729,-7.568,-89.294,-3.967
0.656,0.004,-0.694,-8.118,-98.083,-3.479
0.674,0.021,-0.632,-6.470,-105.896,-4.150
0.693,0.034,-0.567,-3.601,-111.633,-5.310
0.706,0.046,-0.531,-0.793,-113.647,-6.836
0.712,0.052,-0.519,2.197,-113.403,-8.179
0.708,0.066,-0.508,4.944,-113.281,-8.911
0.704,0.073,-0.512,6.165,-112.488,-9.277
0.704,0.073,-0.544,5.188,-110.535,-9.277
0.701,0.072,-0.578,1.892,-110.046,-8.667
0.702,0.060,-0.593,-1.953,-113.281,-7.568
0.733,0.065,-0.590,-7.141,-119.263,-5.798
0.781,0.095,-0.545,-11.414,-127.441,-4.211
0.827,0.103,-0.430,-10.010,-138.855,-5.737
0.872,0.075,-0.279,-4.517,-149.780,-9.399
0.899,0.037,-0.124,1.587,-154.968,-12.817
0.925,0.012,-0.001,8.057,-153.198,-14.465
0.957,-0.001,0.067,13.611,-144.897,-14.709
0.973,-0.019,0.083,17.395,-133.301,-13.916

1.557,-0.276,0.992,-31.494,49.927,15.625
1.598,-0.230,1.102,-47.791,75.867,27.100
1.615,-0.133,1.193,-60.364,105.347,34.973
1.576,-0.068,1.203,-63.477,135.803,36.743
1.485,-0.045,1.090,-57.251,165.771,34.119
1.394,-0.028,0.952,-44.739,188.782,31.067
1.267,0.003,0.826,-29.968,204.163,28.503
1.129,0.015,0.709,-17.822,216.248,25.452
0.970,0.040,0.598,-13.428,229.248,23.376
0.823,0.061,0.486,-17.273,244.507,22.888
0.671,0.082,0.324,-28.381,261.475,22.217
0.463,0.108,0.163,-44.128,281.128,19.836
0.261,0.080,-0.016,-55.725,298.584,17.395
0.037,0.108,-0.237,-62.317,312.744,17.517
-0.162,0.172,-0.487,-66.101,325.256,18.433
-0.376,0.206,-0.779,-62.012,335.999,13.672
-0.606,0.245,-1.097,-53.772,341.980,6.348
-0.797,0.282,-1.485,-42.847,340.027,-0.977
-1.060,0.266,-1.944,-30.273,326.233,-9.644
-1.211,0.196,-2.420,-17.883,297.546,-18.799
-1.188,0.126,-2.849,-17.822,258.850,-23.804
-1.006,0.051,-3.150,-23.132,200.195,-24.048
-0.788,-0.039,-3.116,-22.034,107.971,-16.724
-0.525,-0.030,-2.653,-14.465,1.404,-3.113
-0.249,0.017,-2.077,-9.888,-88.135,6.104
-0.003,0.054,-1.465,-7.507,-151.978,8.972
0.226,0.056,-0.921,-3.662,-186.890,3.174
0.396,-0.022,-0.503,1.282,-195.251,-7.202
0.502,-0.126,-0.186,6.409,-186.646,-17.639
0.565,-0.218,-0.021,9.949,-163.391,-23.682
0.613,-0.263,-0.013,10.376,-131.165,-24.475
0.648,-0.249,-0.109,10.681,-101.929,-20.508
0.660,-0.212,-0.258,12.878,-80.383,-15.747
0.667,-0.169,-0.408,16.174,-67.566,-12.146
0.667,-0.126,-0.536,20.081,-62.744,-10.254
0.657,-0.096,-0.618,24.048,-64.270,-9.827
0.651,-0.076,-0.671,26.672,-69.214,-10.254
0.647,-0.058,-0.710,26.917,-75.134,-10.803
0.641,-0.055,-0.712,24.597,-82.275,-10.498
0.647,-0.044,-0.693,19.409,-89.111,-8.911
0.667,-0.017,-0.671,12.573,-93.994,-6.226
0.680,0.008,-0.637,6.226,-98.877,-4.028
0.679,0.015,-0.588,2.197,-103.760,-3.296
0.681,0.024,-0.538,0.000,-106.812,-2.319
0.700,0.052,-0.504,-1.404,-107.605,-1.099
0.711,0.073,-0.488,-2.136,-107.361,-0.854
0.713,0.079,-0.468,-1.770,-107.605,-1.404
0.724,0.073,-0.457,-0.916,-108.215,-2.014
0.746,0.072,-0.460,-0.671,-108.643,-2.136
0.771,0.076,-0.470,-0.488,-109.436,-2.136
0.787,0.068,-0.454,-0.732,-113.037,-2.197
0.801,0.071,-0.419,-1.831,-117.310,-2.319
0.831,0.083,-0.391,-3.174,-120.728,-2.747
0.877,0.079,-0.354,-3.662,-124.634,-4.028
0.911,0.066,-0.278,-3.784,-129.944,-6.104
0.929,0.037,-0.164,-2.869,-134.644,-8.057
0.941,0.003,-0.047,-1.221,-135.986,-9.216
0.946,-0.031,0.043,0.488,-131.531,-8.911
0.945,-0.067,0.094,1.953,-121.582,-7.202
0.942,-0.092,0.084,2.502,-107.910,-4.150

1.949,0.046,1.567,-142.273,23.499,11.719
2.008,0.038,2.038,-179.382,73.242,3.967
2.005,0.046,2.288,-186.218,133.728,-2.808
1.969,0.125,2.288,-161.377,192.688,-12.756
1.807,0.113,2.012,-112.671,240.234,-25.696
1.525,0.052,1.608,-59.998,274.841,-40.405
1.138,-0.024,1.281,-24.475,298.462,-48.157
0.726,-0.155,0.941,-12.573,323.303,-47.668
0.345,-0.197,0.623,-23.682,352.844,-37.292
0.060,-0.148,0.278,-45.715,380.432,-21.729
-0.183,-0.039,-0.042,-67.078,399.109,-8.545
-0.421,0.057,-0.358,-81.848,408.081,-1.282
-0.664,0.170,-0.681,-88.318,412.537,-0.977
-0.884,0.242,-1.094,-85.144,412.231,-9.644
-1.166,0.247,-1.478,-71.594,403.625,-28.442
-1.497,0.189,-1.860,-50.537,384.094,-50.903
-1.817,0.024,-2.379,-25.330,356.689,-72.205
-1.878,-0.205,-3.113,-9.705,325.623,-89.966
-1.889,-0.586,-3.854,-7.385,270.325,-100.891
-1.661,-0.822,-3.995,-6.287,159.973,-82.397
-1.197,-0.570,-3.261,5.249,6.042,-28.259
-0.735,-0.321,-2.337,15.259,-116.272,8.728
-0.391,-0.200,-1.547,16.602,-188.782,21.667
-0.021,-0.078,-0.933,16.235,-224.609,20.203
0.188,-0.052,-0.458,18.188,-231.934,9.277
0.339,-0.178,-0.179,22.217,-214.539,-10.254
0.417,-0.274,-0.036,23.987,-188.904,-24.170
0.463,-0.354,-0.019,27.588,-164.734,-28.137
0.511,-0.363,-0.072,30.884,-142.517,-26.306
0.545,-0.362,-0.182,35.217,-124.695,-22.827
0.553,-0.367,-0.304,40.222,-112.793,-20.020
0.557,-0.385,-0.419,43.213,-105.713,-15.991
0.563,-0.392,-0.508,42.419,-103.210,-9.888
0.583,-0.379,-0.555,37.598,-105.164,-1.099
0.607,-0.368,-0.557,27.527,-108.643,8.850
0.639,-0.344,-0.519,12.817,-110.596,19.775
0.682,-0.286,-0.472,-2.930,-110.413,30.640
0.724,-0.213,-0.410,-14.526,-106.934,39.551
0.766,-0.128,-0.365,-20.203,-102.295,44.800
0.814,-0.045,-0.344,-18.860,-97.534,45.959
0.866,0.021,-0.348,-11.658,-93.750,42.786
0.903,0.068,-0.374,-2.075,-91.492,36.499
0.930,0.089,-0.406,8.179,-91.736,28.137
0.946,0.086,-0.425,18.311,-93.689,19.653
0.943,0.071,-0.418,25.818,-96.558,12.512
0.944,0.057,-0.403,30.151,-98.389,7.080
0.937,0.024,-0.388,29.785,-97.290,3.784
0.921,-0.007,-0.379,23.499,-92.957,2.808
0.921,-0.020,-0.385,13.611,-85.876,4.395
0.938,0.003,-0.395,4.883,-79.773,7.874
0.958,0.029,-0.403,-0.366,-76.782,10.132
0.959,0.041,-0.396,-1.526,-76.233,9.766
0.966,0.044,-0.388,0.793,-77.209,7.935
0.988,0.058,-0.379,5.127,-79.529,5.127
1.000,0.065,-0.355,10.864,-82.581,1.770
1.001,0.042,-0.325,16.724,-85.632,-2.258
0.990,-0.006,-0.296,20.752,-86.975,-5.371
0.982,-0.049,-0.280,21.729,-85.449,-6.348
0.981,-0.084,-0.269,20.630,-83.191,-4.272
0.972,-0.108,-0.263,18.433,-81.299,-0.366

1.718,-0.093,1.271,14.221,2.747,-0.793
1.745,-0.059,1.636,14.160,27.710,-0.061
1.722,-0.027,1.755,14.160,74.707,-1.221
1.664,-0.014,1.575,18.372,130.127,-5.493
1.583,0.008,1.334,25.391,173.035,-9.094
1.397,-0.008,1.138,33.203,200.989,-11.963
1.179,-0.059,0.965,34.851,224.792,-11.597
0.950,-0.103,0.775,29.419,250.793,-7.690
0.688,-0.089,0.610,18.982,276.489,-0.061
0.451,-0.037,0.411,8.667,301.086,10.437
0.249,0.026,0.208,-1.648,326.050,19.714
0.021,0.132,-0.023,-13.245,350.281,26.184
-0.207,0.199,-0.285,-19.531,371.094,28.442
-0.450,0.325,-0.592,-20.874,388.733,25.574
-0.700,0.419,-0.896,-15.564,401.001,16.113
-1.026,0.472,-1.174,-0.366,405.212,1.648
-1.339,0.438,-1.718,19.409,410.339,-15.442
-1.543,0.269,-2.683,30.029,414.673,-33.691
-1.587,0.034,-3.835,23.010,390.991,-49.255
-1.585,-0.169,-4.000,12.024,294.006,-49.561
-1.382,-0.062,-3.999,19.592,112.915,-16.968
-0.922,0.035,-3.075,31.006,-57.861,23.560
-0.603,0.042,-2.106,16.357,-156.677,38.818
-0.313,0.084,-1.375,-16.113,-193.359,42.236
-0.017,0.183,-0.909,-43.884,-188.721,34.485
0.128,0.097,-0.659,-49.561,-173.401,16.602
0.225,-0.034,-0.539,-39.734,-161.865,-1.526
0.301,-0.114,-0.442,-26.245,-157.104,-10.559
0.337,-0.175,-0.353,-12.695,-153.809,-14.832
0.375,-0.201,-0.298,-2.747,-146.667,-16.968
0.409,-0.198,-0.304,4.639,-135.071,-17.578
0.447,-0.188,-0.374,11.047,-124.207,-18.433
0.475,-0.194,-0.459,17.822,-118.530,-19.348
0.489,-0.216,-0.513,24.902,-119.080,-19.409
0.502,-0.233,-0.548,29.236,-122.864,-17.334
0.521,-0.245,-0.557,29.602,-127.075,-12.817
0.546,-0.243,-0.541,25.940,-131.042,-5.859
0.584,-0.211,-0.508,17.639,-132.446,2.563
0.644,-0.152,-0.475,7.568,-131.714,11.719
0.707,-0.061,-0.433,-0.916,-130.798,19.409
0.760,0.033,-0.367,-5.798,-130.615,23.682
0.829,0.114,-0.311,-5.798,-129.456,23.804
0.892,0.186,-0.286,-2.136,-127.502,20.386
0.936,0.220,-0.273,3.357,-125.427,13.123
0.968,0.223,-0.267,9.399,-123.230,4.333
0.994,0.209,-0.261,13.855,-120.850,-3.296
1.007,0.192,-0.255,15.747,-118.347,-9.949
1.018,0.161,-0.248,15.076,-114.685,-15.320
1.043,0.135,-0.229,11.475,-111.023,-19.043
1.078,0.114,-0.195,6.897,-108.093,-20.752
1.124,0.113,-0.146,3.418,-105.225,-21.484
1.162,0.116,-0.084,2.686,-102.722,-22.888
1.203,0.106,-0.016,5.310,-99.670,-25.757
1.210,0.059,0.030,8.728,-93.140,-29.480
1.200,-0.008,0.039,10.071,-82.520,-32.471
1.184,-0.072,0.013,9.766,-70.801,-32.349
1.162,-0.118,-0.025,7.507,-60.303,-28.503
1.140,-0.133,-0.057,3.784,-51.270,-22.339
1.129,-0.121,-0.094,-0.305,-43.152,-15.564
1.128,-0.088,-0.129,-2.747,-36.194,-9.583

1.684,-0.158,1.158,11.536,40.955,36.682
1.686,-0.155,1.327,8.728,71.594,38.147
1.694,-0.068,1.369,2.014,115.417,39.307
1.706,0.011,1.260,1.953,155.640,38.757
1.616,0.046,1.071,8.606,187.927,33.142
1.398,0.072,0.940,17.761,210.754,26.123
1.163,0.087,0.780,30.090,229.309,22.095
0.927,0.085,0.550,38.513,248.962,21.240
0.639,0.100,0.302,35.522,270.203,22.888
0.384,0.163,0.058,22.888,292.358,27.222
0.158,0.241,-0.218,9.277,311.157,32.288
-0.074,0.339,-0.467,-2.258,325.317,35.400
-0.300,0.467,-0.731,-11.108,336.243,34.546
-0.565,0.575,-1.030,-13.123,343.994,26.550
-0.865,0.688,-1.422,-9.521,349.121,12.268
-1.182,0.754,-1.977,-2.075,351.074,-8.484
-1.428,0.706,-2.812,6.287,343.018,-35.522
-1.457,0.535,-3.742,8.606,303.223,-62.866
-1.446,0.313,-4.000,5.798,209.351,-77.209
-1.175,0.130,-3.894,5.920,64.514,-64.941
-0.726,0.069,-2.993,-1.587,-75.867,-36.987
-0.387,0.073,-2.028,-24.902,-172.729,-14.954
0.029,0.165,-1.222,-47.729,-221.680,-4.395
0.302,0.150,-0.679,-60.730,-227.844,-14.160
0.443,0.002,-0.400,-63.904,-211.914,-34.180
0.545,-0.124,-0.236,-60.791,-193.481,-45.776
0.606,-0.281,-0.086,-50.598,-181.519,-49.561
0.637,-0.414,0.077,-37.842,-170.959,-45.715
0.673,-0.485,0.200,-27.466,-153.198,-35.339
0.703,-0.497,0.251,-20.752,-126.221,-22.034
0.727,-0.452,0.217,-15.564,-94.849,-8.484
0.752,-0.379,0.107,-8.301,-65.857,3.235
0.761,-0.298,-0.035,1.587,-44.495,12.451
0.765,-0.217,-0.190,13.184,-29.968,18.738
0.781,-0.143,-0.360,22.949,-21.057,22.034
0.769,-0.069,-0.477,28.320,-17.029,22.461
0.732,-0.014,-0.574,29.663,-15.137,21.057
0.718,0.034,-0.672,29.297,-14.282,19.714
0.708,0.086,-0.765,26.855,-15.015,18.616
0.689,0.135,-0.858,21.973,-16.418,16.907
0.671,0.177,-0.924,15.198,-19.958,13.855
0.663,0.217,-0.973,9.888,-26.794,10.498
0.642,0.239,-0.993,7.080,-36.072,5.920
0.648,0.258,-1.004,5.493,-46.326,0.916
0.652,0.291,-0.993,4.639,-57.861,-4.089
0.672,0.304,-0.958,5.920,-70.374,-10.498
0.690,0.294,-0.896,7.690,-82.520,-18.372
0.713,0.267,-0.842,8.484,-92.102,-26.611
0.732,0.221,-0.779,8.484,-100.708,-33.936
0.746,0.158,-0.697,8.240,-108.948,-39.429
0.760,0.093,-0.609,7.446,-114.807,-42.480
0.772,0.029,-0.528,4.883,-116.882,-42.419
0.787,-0.036,-0.460,0.732,-115.845,-40.405
0.806,-0.088,-0.404,-4.883,-111.633,-35.706
0.831,-0.102,-0.339,-10.986,-106.567,-28.992
0.861,-0.096,-0.284,-14.648,-101.868,-21.912
0.891,-0.091,-0.248,-15.503,-96.802,-17.029
0.924,-0.089,-0.224,-13.733,-92.346,-13.550
0.950,-0.086,-0.203,-10.986,-89.111,-11.597
0.973,-0.083,-0.181,-8.850,-85.938,-10.498

1.808,-0.576,1.653,-25.452,-58.289,40.161
1.823,-0.484,2.153,-40.833,-13.306,58.105
1.807,-0.283,2.221,-54.565,68.481,70.251
1.732,-0.102,1.906,-52.917,149.963,74.585
1.580,0.085,1.440,-37.292,208.191,72.266
1.391,0.247,1.001,-19.775,244.202,62.805
1.139,0.322,0.647,-5.188,263.794,46.692
0.833,0.342,0.360,3.906,276.794,29.114
0.568,0.309,0.036,6.714,288.818,15.808
0.341,0.262,-0.295,0.244,300.415,8.240
0.140,0.258,-0.625,-12.634,307.800,6.897
0.004,0.328,-0.895,-27.649,307.983,8.972
-0.138,0.440,-1.059,-36.255,298.096,7.996
-0.349,0.568,-1.168,-35.828,286.926,0.122
-0.615,0.622,-1.347,-26.978,283.569,-16.663
-0.939,0.558,-1.736,-12.817,290.283,-41.077
-1.158,0.420,-2.365,-2.502,298.706,-65.002
-1.242,0.176,-3.097,0.122,281.921,-82.458
-1.167,-0.116,-3.563,-1.343,219.604,-84.045
-0.962,-0.356,-3.617,-6.104,119.019,-65.430
-0.661,-0.334,-3.125,-11.169,-0.244,-27.588
-0.307,-0.159,-2.323,-18.127,-108.398,9.033
0.029,-0.002,-1.453,-20.813,-181.885,30.151
0.320,0.028,-0.695,-20.630,-211.792,31.067
0.525,-0.015,-0.175,-22.827,-201.294,21.362
0.684,-0.068,0.093,-29.236,-163.940,12.207
0.800,-0.143,0.164,-33.142,-122.559,5.127
0.866,-0.220,0.141,-29.846,-92.590,2.563
0.904,-0.260,0.098,-23.193,-72.144,5.005
0.926,-0.250,0.052,-17.883,-56.152,9.766
0.926,-0.220,0.002,-14.221,-41.809,14.282
0.918,-0.176,-0.054,-11.047,-28.564,17.700
0.899,-0.132,-0.140,-7.996,-15.930,19.470
0.869,-0.089,-0.265,-5.554,-4.517,19.226
0.830,-0.054,-0.406,-3.906,5.005,17.822
0.784,-0.010,-0.530,-2.014,10.864,15.625
0.747,0.025,-0.653,1.038,12.512,12.573
0.710,0.061,-0.754,4.761,10.193,8.423
0.676,0.095,-0.841,8.118,5.737,3.601
0.646,0.125,-0.906,10.986,0.183,-1.526
0.615,0.143,-0.967,14.771,-5.676,-7.263
0.587,0.147,-1.014,18.311,-13.306,-14.099
0.551,0.144,-1.057,21.301,-22.400,-20.691
0.526,0.132,-1.079,22.644,-32.471,-26.184
0.508,0.109,-1.084,22.644,-43.335,-30.823
0.491,0.078,-1.066,20.874,-53.894,-34.668
0.489,0.061,-1.033,18.982,-63.416,-36.926
0.501,0.058,-1.009,18.372,-73.181,-38.818
0.511,0.033,-0.932,20.203,-84.045,-41.748
0.512,-0.016,-0.825,25.146,-95.093,-44.373
0.536,-0.055,-0.739,29.175,-102.478,-44.617
0.554,-0.078,-0.684,30.701,-104.980,-43.152
0.566,-0.101,-0.647,31.006,-106.262,-40.527
0.592,-0.113,-0.620,29.968,-106.934,-36.438
0.621,-0.098,-0.595,27.893,-107.666,-31.494
0.662,-0.078,-0.579,25.940,-109.253,-27.344
0.696,-0.059,-0.534,23.987,-112.488,-24.841
0.737,-0.049,-0.446,23.499,-117.065,-23.376
0.778,-0.086,-0.351,23.743,-120.605,-22.827
0.803,-0.149,-0.260,20.874,-119.629,-21.667

1.533,0.290,0.865,0.671,85.632,22.156
1.471,0.274,0.810,14.038,108.398,7.385
1.391,0.240,0.647,22.888,131.653,-5.005
1.287,0.204,0.541,24.231,149.414,-13.855
1.131,0.145,0.458,20.752,163.452,-18.738
0.969,0.091,0.383,11.658,179.687,-18.372
0.801,0.104,0.283,0.793,199.158,-13.123
0.637,0.153,0.113,-7.751,219.971,-6.714
0.475,0.207,-0.114,-15.625,241.821,-2.991
0.288,0.321,-0.291,-16.907,256.104,-1.892
0.071,0.430,-0.483,-6.226,263.855,-3.906
-0.221,0.467,-0.827,13.489,275.635,-14.343
-0.600,0.356,-1.389,39.307,289.490,-29.053
-0.986,0.187,-2.205,61.584,296.753,-40.161
-1.163,0.047,-3.087,70.435,279.785,-39.063
-1.120,-0.053,-3.701,59.509,225.952,-27.344
-0.903,-0.073,-3.833,34.485,138.855,-8.057
-0.554,0.037,-3.265,3.967,33.691,11.597
-0.238,0.104,-2.339,-15.503,-64.636,22.095
0.068,0.146,-1.432,-22.522,-130.432,21.240
0.351,0.117,-0.704,-22.766,-156.616,11.108
0.555,0.010,-0.216,-18.494,-151.245,-4.211
0.711,-0.134,0.054,-12.634,-130.249,-16.296
0.799,-0.260,0.176,-8.545,-104.187,-21.667
0.843,-0.318,0.185,-5.920,-77.698,-20.142
0.867,-0.299,0.105,-3.296,-53.528,-14.343
0.859,-0.249,-0.046,-0.366,-33.508,-8.118
0.825,-0.187,-0.229,2.502,-19.714,-2.991
0.778,-0.119,-0.417,5.188,-10.681,1.038
0.727,-0.059,-0.589,6.775,-6.653,4.089
0.676,-0.016,-0.737,7.568,-6.897,5.798
0.624,0.033,-0.839,7.935,-11.047,7.141
0.589,0.096,-0.899,8.362,-18.188,8.240
0.570,0.155,-0.939,9.033,-26.428,8.118
0.561,0.196,-0.969,7.812,-33.936,6.470
0.560,0.229,-0.982,5.371,-40.955,3.479
0.577,0.250,-0.971,1.953,-49.255,0.000
0.593,0.242,-0.948,-1.099,-57.617,-3.784
0.608,0.222,-0.914,-3.967,-65.552,-7.751
0.632,0.201,-0.864,-6.409,-72.449,-10.986
0.648,0.174,-0.803,-7.568,-78.918,-13.367
0.666,0.143,-0.747,-7.629,-84.473,-15.198
0.680,0.111,-0.685,-7.935,-88.135,-16.357
0.700,0.058,-0.626,-9.216,-89.844,-16.663
0.713,0.008,-0.576,-10.803,-89.966,-15.320
0.735,-0.019,-0.542,-11.780,-89.355,-11.719
0.758,-0.037,-0.508,-11.169,-89.600,-7.202
0.791,-0.040,-0.460,-11.536,-89.722,-3.113
0.835,-0.024,-0.410,-12.512,-88.867,0.427
0.870,0.000,-0.359,-12.024,-87.646,3.235
0.898,0.012,-0.311,-10.010,-86.304,3.967
0.914,0.009,-0.280,-7.202,-83.496,3.967
0.923,0.001,-0.266,-5.127,-79.651,3.479
0.939,0.006,-0.251,-3.174,-76.111,3.845
0.945,0.012,-0.251,-0.610,-72.571,4.517
0.946,0.028,-0.258,1.648,-68.420,4.700
0.956,0.065,-0.276,3.540,-64.453,5.188
0.965,0.096,-0.320,6.531,-61.218,4.272
0.977,0.106,-0.352,9.033,-60.852,1.953
0.973,0.096,-0.359,10.010,-62.317,-0.366

1.719,-0.183,1.247,19.165,36.682,19.287
1.686,-0.203,1.457,27.100,62.134,23.010
1.660,-0.140,1.495,31.128,101.746,30.151
1.588,-0.072,1.398,32.898,143.982,35.706
1.354,-0.073,1.239,35.522,181.152,38.635
1.046,-0.089,0.945,38.269,215.576,43.823
0.733,-0.050,0.538,33.447,248.047,55.237
0.403,0.049,0.094,18.127,278.076,67.627
0.023,0.171,-0.381,0.305,303.711,77.759
-0.354,0.436,-0.787,-11.780,320.496,86.670
-0.767,0.780,-1.257,-15.686,333.130,87.952
-1.234,1.007,-1.999,-7.446,349.243,70.129
-1.491,1.138,-3.039,3.906,354.431,41.504
-1.484,1.046,-3.982,15.320,315.063,7.935
-1.227,0.775,-4.000,22.034,220.703,-19.531
-0.850,0.447,-4.000,17.700,80.750,-29.724
-0.491,0.224,-3.160,4.089,-60.730,-25.024
-0.110,0.080,-1.895,-15.747,-161.438,-14.038
0.255,-0.031,-0.745,-32.349,-207.214,-6.775
0.534,-0.118,0.065,-44.006,-196.045,-6.958
0.772,-0.202,0.414,-46.143,-151.062,-10.742
0.944,-0.259,0.427,-42.664,-101.074,-12.939
1.051,-0.257,0.317,-38.757,-62.439,-11.841
1.070,-0.255,0.209,-32.349,-38.330,-10.193
1.057,-0.231,0.127,-25.574,-21.362,-8.911
1.009,-0.190,0.047,-18.372,-7.080,-7.446
0.943,-0.151,-0.077,-10.803,6.531,-6.409
0.856,-0.113,-0.233,-4.333,19.714,-5.554
0.770,-0.072,-0.396,0.488,29.968,-4.028
0.700,-0.016,-0.559,5.188,36.194,-2.258
0.646,0.062,-0.703,10.437,37.476,-0.916
0.609,0.132,-0.829,17.639,33.081,-0.732
0.580,0.180,-0.906,24.658,24.475,-2.136
0.559,0.231,-0.952,29.419,14.038,-4.028
0.576,0.288,-0.978,30.518,4.272,-5.981
0.590,0.332,-0.984,29.602,-5.310,-8.789
0.616,0.353,-0.982,26.001,-14.832,-12.817
0.643,0.359,-0.965,19.897,-22.400,-17.212
0.657,0.344,-0.931,13.733,-30.090,-21.484
0.681,0.328,-0.884,8.484,-37.109,-24.536
0.694,0.318,-0.830,4.578,-43.396,-27.222
0.697,0.296,-0.788,2.014,-47.607,-30.457
0.705,0.271,-0.757,0.061,-50.171,-33.447
0.697,0.241,-0.740,-0.549,-51.514,-35.767
0.684,0.196,-0.752,-1.099,-51.514,-38.330
0.664,0.143,-0.773,-2.502,-51.575,-40.161
0.629,0.086,-0.779,-4.150,-53.223,-40.222
0.598,0.025,-0.784,-6.287,-55.481,-38.269
0.568,-0.032,-0.796,-9.521,-57.678,-34.119
0.557,-0.061,-0.805,-14.343,-59.937,-26.978
0.564,-0.056,-0.809,-19.348,-63.782,-18.005
0.583,-0.036,-0.786,-21.790,-70.435,-9.827
0.603,-0.019,-0.734,-22.095,-78.613,-3.540
0.628,0.002,-0.676,-21.484,-85.815,0.916
0.660,0.019,-0.614,-21.179,-90.576,4.395
0.699,0.041,-0.552,-20.386,-94.055,6.836
0.752,0.072,-0.487,-18.738,-96.741,8.545
0.798,0.089,-0.415,-15.869,-98.694,8.545
0.847,0.098,-0.358,-12.939,-98.877,6.775
0.884,0.094,-0.311,-10.559,-97.656,4.883

1.562,-0.082,1.078,27.283,84.412,21.179
1.566,-0.021,1.061,22.766,119.934,27.954
1.537,0.063,0.901,20.630,155.090,31.738
1.448,0.151,0.708,22.278,183.411,30.884
1.298,0.200,0.516,27.283,202.576,26.489
1.110,0.221,0.313,31.799,216.919,21.118
0.923,0.287,0.159,32.471,227.173,17.517
0.698,0.336,0.035,30.273,237.488,14.526
0.451,0.364,-0.130,26.001,251.160,11.108
0.210,0.429,-0.345,20.813,267.761,8.545
-0.042,0.509,-0.628,20.020,283.752,4.272
-0.313,0.614,-0.988,24.109,295.776,-1.343
-0.598,0.663,-1.476,31.128,300.659,-10.071
-0.856,0.669,-2.106,37.598,294.006,-19.470
-1.018,0.590,-2.794,36.560,270.447,-27.771
-1.054,0.456,-3.342,25.024,222.168,-32.593
-0.912,0.383,-3.494,8.179,144.653,-27.344
-0.657,0.302,-2.995,-3.723,39.734,-13.794
-0.362,0.275,-2.230,-18.066,-48.462,-3.479
-0.038,0.254,-1.521,-35.522,-98.511,-0.305
0.247,0.162,-0.982,-45.776,-117.249,-5.493
0.460,0.012,-0.605,-45.654,-117.798,-16.663
0.639,-0.113,-0.352,-36.499,-113.464,-23.804
0.787,-0.204,-0.170,-25.513,-106.445,-25.452
0.880,-0.246,-0.040,-17.456,-95.154,-23.987
0.924,-0.247,0.012,-12.878,-76.904,-21.240
0.938,-0.210,-0.028,-10.132,-54.565,-18.372
0.911,-0.162,-0.146,-6.897,-34.363,-16.235
0.864,-0.109,-0.294,-2.380,-19.165,-15.503
0.796,-0.062,-0.450,2.991,-9.766,-15.137
0.728,-0.020,-0.610,6.836,-4.639,-15.320
0.653,0.014,-0.750,8.301,-3.113,-15.198
0.583,0.036,-0.862,7.324,-5.371,-14.160
0.539,0.071,-0.953,4.272,-9.949,-11.353
0.514,0.117,-1.001,1.038,-18.188,-7.690
0.504,0.166,-1.020,-0.977,-28.809,-4.822
0.501,0.204,-1.020,-2.441,-38.879,-4.028
0.511,0.239,-1.010,-4.089,-48.035,-4.395
0.528,0.271,-0.988,-5.005,-57.373,-5.798
0.547,0.283,-0.958,-5.554,-66.101,-8.606
0.554,0.279,-0.931,-6.775,-72.998,-12.512
0.555,0.261,-0.897,-9.888,-78.430,-16.418
0.548,0.218,-0.866,-13.489,-82.336,-19.592
0.536,0.160,-0.838,-17.578,-85.205,-21.545
0.529,0.103,-0.820,-21.729,-87.585,-21.240
0.539,0.074,-0.808,-25.879,-90.271,-18.494
0.576,0.080,-0.789,-28.809,-94.971,-14.526
0.613,0.097,-0.730,-28.015,-102.722,-11.780
0.656,0.104,-0.650,-23.743,-111.572,-11.108
0.697,0.103,-0.580,-18.555,-118.164,-12.085
0.743,0.101,-0.492,-13.916,-123.047,-13.733
0.785,0.083,-0.395,-10.437,-125.916,-15.686
0.805,0.043,-0.308,-9.888,-124.634,-17.273
0.809,-0.003,-0.234,-12.329,-118.347,-17.517
0.815,-0.036,-0.185,-15.198,-108.154,-15.015
0.839,-0.040,-0.186,-17.395,-96.741,-10.437
0.873,-0.018,-0.231,-18.066,-86.182,-5.859
0.910,0.004,-0.284,-16.785,-80.444,-2.808
0.938,0.019,-0.294,-13.672,-80.383,-1.648
0.959,0.023,-0.266,-10.193,-83.130,-1.648

1.909,0.056,0.998,28.748,33.875,-3.113
1.968,-0.023,1.242,39.795,48.096,-12.207
1.909,-0.128,1.392,54.016,72.876,-19.287
1.791,-0.221,1.364,67.810,106.262,-20.935
1.562,-0.331,1.169,76.599,142.090,-16.663
1.309,-0.396,0.890,72.754,175.903,-2.808
1.060,-0.318,0.688,53.711,203.247,19.897
0.775,-0.196,0.505,27.039,225.952,44.067
0.502,0.011,0.232,-2.563,254.944,64.270
0.269,0.324,-0.010,-29.846,281.433,78.125
0.002,0.632,-0.296,-46.936,302.124,80.750
-0.342,0.866,-0.637,-50.842,325.195,65.918
-0.834,0.981,-1.098,-36.682,345.520,40.283
-1.339,0.982,-1.901,-10.742,365.784,10.742
-1.602,0.991,-2.963,3.906,378.479,-14.221
-1.585,0.838,-3.922,0.549,347.290,-37.537
-1.344,0.495,-4.000,-7.996,248.230,-52.429
-0.989,0.212,-3.995,-15.625,101.013,-43.701
-0.594,0.090,-3.088,-21.118,-46.326,-21.118
-0.203,0.059,-1.942,-31.921,-157.349,-2.869
0.182,0.004,-0.809,-31.067,-223.145,5.554
0.492,-0.109,0.145,-24.353,-235.352,-2.869
0.720,-0.244,0.618,-22.156,-188.477,-14.893
0.848,-0.388,0.605,-25.635,-117.798,-23.987
0.893,-0.492,0.362,-26.367,-61.157,-25.024
0.890,-0.512,0.158,-17.761,-34.424,-16.174
0.878,-0.470,0.022,-7.568,-23.193,-4.272
0.857,-0.383,-0.084,-0.854,-14.221,6.042
0.787,-0.296,-0.192,3.784,-5.127,13.550
0.721,-0.211,-0.341,8.118,4.333,18.921
0.667,-0.104,-0.520,12.390,11.169,23.254
0.621,0.007,-0.694,15.869,13.733,25.330
0.580,0.106,-0.844,17.090,12.817,23.987
0.557,0.199,-0.964,17.639,7.568,20.630
0.549,0.267,-1.054,18.311,-2.136,15.320
0.552,0.319,-1.099,18.066,-14.648,8.545
0.557,0.332,-1.090,17.151,-29.968,1.709
0.563,0.321,-1.057,15.442,-42.542,-4.150
0.584,0.322,-1.005,11.719,-52.917,-8.606
0.608,0.302,-0.948,6.592,-61.707,-12.573
0.623,0.266,-0.884,1.465,-68.176,-15.625
0.636,0.235,-0.838,-2.930,-72.205,-17.029
0.664,0.221,-0.803,-7.141,-75.195,-17.578
0.697,0.222,-0.778,-10.498,-77.515,-17.517
0.732,0.209,-0.756,-11.230,-81.970,-18.677
0.748,0.178,-0.697,-10.315,-88.074,-20.996
0.757,0.140,-0.635,-9.033,-92.773,-23.071
0.761,0.094,-0.587,-7.996,-94.910,-24.292
0.763,0.037,-0.553,-7.812,-95.032,-24.414
0.777,0.009,-0.548,-8.728,-93.140,-22.034
0.807,0.020,-0.548,-9.644,-92.712,-18.188
0.839,0.017,-0.509,-8.667,-96.069,-15.259
0.842,-0.007,-0.453,-7.751,-99.548,-13.428
0.841,-0.034,-0.404,-9.094,-99.609,-10.864
0.846,-0.046,-0.364,-12.207,-97.290,-6.592
0.864,-0.027,-0.327,-17.212,-92.834,-1.343
0.883,-0.001,-0.292,-22.766,-87.341,3.662
0.903,0.029,-0.257,-25.696,-81.665,7.263
0.923,0.065,-0.241,-24.658,-76.538,9.277
0.945,0.086,-0.245,-21.240,-71.960,8.728

1.665,-0.021,1.093,19.958,57.251,11.292
1.704,0.026,1.228,28.748,80.261,9.155
1.680,0.043,1.322,43.091,105.347,3.845
1.602,0.009,1.313,61.707,133.667,-2.258
1.442,-0.086,1.173,80.505,163.574,-6.165
1.189,-0.233,0.885,96.497,191.406,-4.272
0.984,-0.332,0.471,98.083,216.919,7.019
0.731,-0.321,0.091,79.651,236.816,26.978
0.532,-0.164,-0.162,47.363,246.948,52.734
0.290,0.069,-0.285,15.747,250.305,74.707
0.068,0.407,-0.455,-8.362,259.644,86.670
-0.194,0.723,-0.787,-19.592,277.100,81.177
-0.521,1.006,-1.291,-8.301,290.161,57.312
-0.914,1.095,-2.098,19.226,291.443,20.264
-1.219,0.963,-3.128,43.091,274.475,-17.090
-1.191,0.856,-3.819,45.410,223.206,-39.795
-1.077,0.684,-3.852,33.569,126.221,-44.373
-0.708,0.507,-3.246,16.235,18.311,-39.856
-0.393,0.392,-2.400,-3.601,-69.702,-34.302
-0.007,0.264,-1.543,-22.827,-130.005,-29.663
0.329,0.160,-0.735,-32.349,-164.856,-28.259
0.584,0.041,-0.067,-30.762,-176.453,-29.175
0.807,-0.077,0.319,-26.428,-160.278,-31.006
0.953,-0.190,0.425,-26.672,-124.207,-32.959
1.019,-0.296,0.363,-27.161,-88.867,-31.494
1.014,-0.383,0.238,-25.818,-62.988,-25.024
1.006,-0.399,0.096,-25.635,-43.274,-13.245
0.983,-0.365,-0.034,-26.917,-28.381,-0.732
0.938,-0.301,-0.158,-27.710,-16.541,10.498
0.884,-0.236,-0.281,-26.733,-7.446,19.470
0.830,-0.160,-0.399,-25.085,-1.465,26.245
0.802,-0.063,-0.525,-24.414,3.052,31.006
0.771,0.017,-0.638,-23.987,5.554,32.654
0.739,0.087,-0.720,-21.912,3.845,31.494
0.744,0.164,-0.768,-17.456,-0.610,28.137
0.731,0.225,-0.837,-12.207,-6.165,22.217
0.731,0.263,-0.857,-6.592,-13.855,14.954
0.719,0.263,-0.844,-0.488,-24.109,6.775
0.726,0.238,-0.846,3.418,-30.762,-0.854
0.746,0.242,-0.801,5.493,-38.147,-5.981
0.769,0.212,-0.747,8.179,-45.837,-10.681
0.784,0.177,-0.696,9.827,-51.636,-14.404
0.796,0.146,-0.655,10.010,-54.993,-16.235
0.808,0.104,-0.631,9.277,-56.213,-17.029
0.809,0.060,-0.609,7.690,-56.824,-15.930
0.822,0.043,-0.586,5.737,-58.228,-13.000
0.842,0.040,-0.559,3.296,-59.509,-9.583
0.865,0.042,-0.520,1.526,-62.012,-6.470
0.880,0.033,-0.478,1.343,-65.002,-4.456
0.889,0.017,-0.437,1.160,-66.650,-2.625
0.891,0.003,-0.413,0.183,-66.589,-0.610
0.888,-0.003,-0.387,-0.671,-66.650,2.258
0.881,-0.008,-0.358,-0.549,-67.322,5.310
0.870,0.004,-0.303,-0.549,-67.261,8.789
0.886,0.049,-0.256,-1.282,-64.880,11.658
0.912,0.104,-0.239,-0.488,-59.937,12.878
0.941,0.141,-0.241,2.930,-56.641,11.169
0.945,0.149,-0.244,8.240,-55.176,7.568
0.940,0.145,-0.248,13.062,-53.955,4.211
0.931,0.126,-0.273,16.235,-52.246,2.014

1.727,0.026,1.372,7.874,60.730,1.587
1.723,-0.033,1.535,10.498,91.797,1.770
1.678,-0.079,1.481,10.071,136.719,1.831
1.579,-0.052,1.314,12.573,176.819,5.432
1.440,0.037,1.132,18.982,203.918,9.888
1.205,0.101,0.932,20.996,228.088,11.292
0.947,0.165,0.690,16.968,254.333,10.376
0.678,0.250,0.462,5.737,279.480,11.108
0.361,0.285,0.209,-9.949,304.810,11.108
-0.008,0.452,-0.047,-27.222,333.313,11.658
-0.429,0.588,-0.476,-37.231,364.319,7.751
-0.927,0.726,-1.107,-37.537,396.240,-4.028
-1.373,0.800,-1.958,-28.137,415.527,-20.630
-1.604,0.672,-3.003,-16.479,406.799,-42.419
-1.638,0.361,-3.993,-17.883,357.544,-60.181
-1.555,0.034,-4.000,-36.194,253.235,-57.983
-1.166,-0.029,-4.000,-56.641,107.971,-30.212
-0.719,0.039,-2.947,-64.331,-41.809,4.517
-0.283,0.014,-1.709,-70.007,-141.785,21.362
0.221,0.093,-0.804,-76.843,-181.885,24.231
0.475,0.062,-0.202,-72.632,-183.350,12.024
0.646,-0.098,0.121,-62.561,-161.682,-7.446
0.843,-0.177,0.258,-56.702,-129.517,-18.555
0.905,-0.295,0.303,-48.279,-102.417,-24.170
0.926,-0.412,0.273,-38.635,-77.576,-26.672
0.913,-0.480,0.181,-27.283,-55.237,-23.499
0.886,-0.496,0.034,-14.282,-37.476,-16.113
0.843,-0.493,-0.126,-1.465,-24.231,-7.385
0.778,-0.465,-0.290,9.521,-14.832,1.343
0.717,-0.393,-0.432,18.311,-9.644,11.108
0.678,-0.279,-0.545,23.071,-8.667,21.667
0.667,-0.144,-0.648,21.423,-7.507,29.602
0.657,-0.034,-0.748,16.296,-5.920,32.593
0.636,0.052,-0.834,12.024,-7.080,31.555
0.641,0.129,-0.886,10.132,-13.428,29.358
0.649,0.177,-0.943,10.193,-21.240,24.658
0.648,0.218,-0.949,10.437,-30.090,18.555
0.656,0.235,-0.926,12.268,-40.771,13.000
0.664,0.229,-0.908,13.428,-49.072,7.629
0.677,0.231,-0.890,12.085,-54.810,3.662
0.698,0.243,-0.880,9.583,-60.120,0.732
0.719,0.245,-0.864,7.568,-65.979,-1.648
0.738,0.236,-0.822,4.578,-72.205,-4.089
0.756,0.225,-0.782,1.648,-77.271,-7.202
0.788,0.221,-0.742,-0.427,-81.726,-10.803
0.803,0.183,-0.700,-1.831,-86.182,-15.015
0.805,0.120,-0.654,-2.930,-90.088,-19.409
0.790,0.057,-0.603,-3.357,-93.018,-21.606
0.777,-0.006,-0.545,-3.113,-94.666,-21.545
0.764,-0.068,-0.498,-2.991,-94.055,-19.531
0.756,-0.114,-0.474,-3.174,-91.431,-15.137
0.748,-0.137,-0.462,-3.662,-88.928,-8.972
0.754,-0.132,-0.453,-3.845,-86.853,-2.197
0.787,-0.085,-0.432,-3.174,-85.876,4.395
0.833,-0.015,-0.406,-2.197,-86.426,9.094
0.879,0.045,-0.358,-1.343,-87.769,10.010
0.907,0.063,-0.318,-0.427,-87.891,7.568
0.915,0.051,-0.300,1.099,-86.426,3.906
0.916,0.022,-0.312,3.479,-84.534,0.854
0.906,-0.015,-0.347,5.493,-83.374,-0.244

1.628,-0.157,1.139,-14.832,65.125,22.644
1.651,-0.128,1.301,-24.780,91.125,27.771
1.639,-0.081,1.420,-29.053,121.155,31.921
1.595,-0.021,1.382,-25.635,153.015,33.203
1.453,0.027,1.300,-16.174,183.838,30.701
1.222,0.047,1.185,-4.028,209.595,28.076
0.969,0.088,1.002,7.446,234.314,28.198
0.719,0.152,0.750,9.155,262.085,31.433
0.435,0.184,0.390,-1.465,296.875,32.471
0.111,0.207,-0.005,-16.541,330.078,31.677
-0.197,0.310,-0.447,-25.757,352.661,32.959
-0.511,0.448,-0.865,-28.931,369.202,28.870
-0.926,0.605,-1.286,-17.944,376.221,18.066
-1.359,0.667,-1.874,6.897,378.967,-0.366
-1.663,0.614,-2.731,34.546,373.535,-22.217
-1.724,0.379,-3.684,48.584,343.445,-41.931
-1.539,0.088,-4.000,35.889,275.269,-50.049
-1.177,-0.119,-4.000,9.094,149.902,-35.095
-0.782,-0.111,-3.414,-4.456,-18.982,2.014
-0.349,0.002,-2.157,-12.878,-158.875,32.532
0.093,0.147,-0.996,-19.409,-233.398,45.654
0.462,0.116,-0.122,-22.339,-240.356,33.752
0.706,0.013,0.368,-24.719,-198.853,15.198
0.880,-0.123,0.481,-24.963,-143.982,1.709
0.982,-0.222,0.356,-23.560,-94.666,-3.113
1.010,-0.250,0.181,-20.081,-62.439,-0.793
1.012,-0.217,0.030,-13.489,-44.983,4.700
0.984,-0.159,-0.103,-7.080,-33.997,9.155
0.933,-0.097,-0.239,-1.892,-24.963,11.292
0.877,-0.029,-0.367,2.625,-18.372,11.414
0.809,0.025,-0.475,8.057,-15.869,9.766
0.748,0.058,-0.586,14.160,-15.808,7.080
0.703,0.092,-0.690,18.372,-17.212,4.639
0.665,0.132,-0.765,20.386,-20.325,2.808
0.644,0.171,-0.837,20.569,-24.170,0.732
0.625,0.204,-0.872,18.372,-28.870,-1.648
0.626,0.222,-0.897,15.137,-34.424,-4.456
0.640,0.234,-0.911,11.597,-40.161,-7.812
0.658,0.265,-0.898,8.911,-47.241,-10.803
0.690,0.292,-0.852,9.888,-56.702,-14.587
0.722,0.293,-0.794,13.367,-65.735,-19.592
0.745,0.274,-0.743,15.381,-72.205,-25.269
0.777,0.241,-0.694,16.174,-76.538,-29.785
0.800,0.197,-0.632,16.174,-80.444,-32.471
0.805,0.149,-0.569,14.832,-82.520,-33.813
0.817,0.099,-0.521,12.756,-81.665,-33.630
0.818,0.046,-0.494,9.155,-79.102,-31.921
0.825,0.010,-0.479,5.005,-75.745,-28.503
0.834,-0.010,-0.455,2.197,-74.585,-23.743
0.849,-0.012,-0.410,0.549,-75.073,-18.738
0.864,-0.004,-0.364,0.183,-74.707,-14.587
0.890,0.009,-0.343,0.671,-71.960,-11.597
0.912,0.035,-0.323,2.258,-70.251,-10.071
0.932,0.060,-0.296,6.348,-69.946,-10.193
0.946,0.068,-0.260,11.475,-69.458,-11.841
0.948,0.047,-0.237,15.137,-67.566,-13.977
0.945,0.014,-0.221,16.052,-64.209,-14.832
0.938,-0.026,-0.228,14.709,-58.716,-13.367
0.917,-0.054,-0.247,11.047,-53.223,-9.460
0.908,-0.055,-0.293,7.202,-48.157,-3.601

1.180,-0.310,1.786,-23.865,-85.815,-10.803
1.267,-0.380,2.408,-40.283,-34.058,5.859
1.322,-0.382,2.950,-58.411,52.856,25.024
1.263,-0.330,3.270,-81.543,173.706,38.086
1.055,-0.007,3.204,-107.361,318.848,45.715
0.828,0.114,2.796,-118.896,461.426,33.875
0.537,0.139,2.333,-124.878,576.294,8.606
-0.011,0.040,1.834,-127.075,663.391,-25.085
-0.408,0.018,1.241,-119.873,735.779,-53.650
-0.621,0.030,0.474,-103.394,778.015,-77.698
-0.713,0.014,-0.317,-70.129,765.259,-90.637
-0.793,-0.012,-0.909,-28.992,705.017,-89.783
-0.830,-0.692,-1.500,-5.798,637.695,-81.421
-1.230,-0.848,-1.798,-58.105,584.778,-19.043
-1.299,-0.657,-2.318,-157.532,544.006,34.424
-1.136,-0.204,-2.458,-217.651,467.834,54.504
-1.010,0.011,-2.282,-175.842,373.230,57.068
-0.763,0.010,-2.048,-59.448,281.921,39.429
-0.654,0.020,-1.711,34.424,192.139,13.611
-0.577,0.027,-1.484,70.862,138.184,1.953
-0.528,0.067,-1.361,54.688,113.708,2.625
-0.492,0.105,-1.344,20.569,94.727,0.916
-0.488,0.079,-1.448,1.221,78.369,-6.042
-0.470,0.015,-1.563,-4.333,57.007,-15.625
-0.434,-0.059,-1.629,1.587,22.583,-23.987
-0.376,-0.138,-1.607,18.250,-16.663,-25.879
-0.274,-0.163,-1.506,36.682,-56.458,-21.301
-0.137,-0.142,-1.357,49.500,-90.881,-12.695
-0.045,-0.091,-1.144,52.856,-116.333,-4.761
0.169,-0.044,-0.973,48.645,-133.240,-2.502
0.399,0.000,-0.808,41.199,-143.616,-6.470
0.531,-0.017,-0.651,37.354,-148.254,-11.047
0.542,-0.177,-0.561,34.973,-145.508,-14.099
0.672,-0.143,-0.499,28.381,-136.047,-7.446
0.808,-0.054,-0.514,22.095,-123.230,-2.197
0.821,-0.059,-0.607,17.822,-104.919,-3.235
0.774,-0.066,-0.713,13.123,-89.050,-2.747
0.731,-0.066,-0.792,7.080,-78.979,-0.916
0.684,-0.060,-0.833,-0.122,-74.219,0.305
0.697,-0.010,-0.821,-5.676,-71.655,3.967
0.695,-0.026,-0.789,-10.132,-69.458,3.662
0.684,-0.039,-0.738,-15.076,-67.139,2.319
0.662,-0.013,-0.696,-19.775,-61.462,4.944
0.606,0.028,-0.702,-31.555,-52.063,7.690
0.595,0.067,-0.735,-45.837,-43.152,7.812
0.606,0.092,-0.793,-47.363,-35.583,4.333
0.567,0.099,-0.832,-31.921,-32.288,-1.282
0.592,0.072,-0.900,-5.249,-31.372,-9.888
0.598,0.040,-0.914,20.508,-35.828,-16.846
0.599,0.007,-0.922,39.795,-44.495,-21.790
0.580,-0.020,-0.927,49.072,-53.345,-24.902
0.569,-0.019,-0.923,50.781,-63.416,-25.574
0.586,-0.007,-0.925,51.758,-70.129,-25.513
0.597,-0.001,-0.914,54.810,-77.759,-26.367
0.609,-0.006,-0.899,59.570,-86.670,-27.588
0.635,-0.019,-0.876,62.378,-96.558,-27.832
0.642,-0.022,-0.829,61.707,-109.802,-28.381
0.649,-0.032,-0.798,62.988,-122.742,-29.541
0.681,-0.028,-0.759,65.857,-133.240,-31.006
0.718,-0.016,-0.719,68.909,-143.372,-30.579

1.351,-0.534,1.992,-66.895,140.930,27.466
1.230,-0.554,2.326,-70.374,242.859,30.701
0.993,-0.481,2.587,-92.346,370.117,28.137
0.718,-0.396,2.336,-101.746,532.166,19.775
0.542,-0.522,1.456,-70.740,687.683,45.349
0.338,-0.173,0.739,-44.006,752.136,97.595
0.178,0.202,0.110,-23.743,764.160,124.573
0.009,0.416,-0.452,-17.151,753.662,108.337
-0.092,0.595,-0.897,-6.531,723.877,73.242
-0.296,0.615,-1.322,15.076,662.781,27.100
-0.471,0.660,-1.598,44.373,573.669,-30.945
-0.492,0.505,-1.876,78.674,481.079,-80.994
-0.623,0.332,-1.943,107.361,379.822,-99.609
-1.061,0.097,-2.485,131.714,293.518,-79.529
-0.807,0.412,-1.993,114.746,213.684,-34.607
-0.731,0.514,-2.016,92.285,155.701,-17.822
-0.682,0.544,-1.990,94.421,129.761,-25.208
-0.793,0.445,-1.828,88.440,83.069,-30.640
-1.079,0.267,-1.579,80.505,44.739,-25.696
-0.953,0.240,-1.458,58.655,35.034,-18.127
-0.768,0.256,-1.153,21.790,26.550,-13.367
-0.483,0.345,-1.036,-2.441,19.470,-6.409
-0.213,0.388,-0.938,-9.644,-0.488,6.042
-0.119,0.443,-1.006,-2.075,-14.038,14.465
-0.132,0.462,-1.007,8.484,-40.344,14.893
-0.074,0.521,-1.125,22.888,-67.200,7.385
-0.105,0.494,-1.069,43.518,-96.619,-7.690
-0.071,0.327,-1.078,61.829,-101.929,-31.189
-0.005,0.183,-1.106,57.495,-104.126,-51.208
0.072,0.093,-1.094,44.312,-110.474,-58.838
0.121,-0.017,-1.042,39.124,-117.249,-53.894
0.193,-0.040,-0.952,36.011,-121.643,-42.236
0.281,-0.015,-0.851,31.494,-122.559,-27.588
0.351,0.037,-0.767,28.076,-118.286,-14.587
0.415,0.089,-0.719,25.818,-109.802,-4.944
0.462,0.158,-0.709,23.865,-99.976,2.075
0.505,0.217,-0.725,20.935,-90.149,5.859
0.539,0.291,-0.755,17.761,-80.750,7.812
0.559,0.350,-0.797,14.526,-72.998,6.531
0.566,0.389,-0.844,11.536,-66.223,2.625
0.564,0.410,-0.890,8.728,-61.035,-2.991
0.553,0.409,-0.920,4.211,-58.350,-10.864
0.546,0.398,-0.938,0.427,-57.678,-19.714
0.540,0.387,-0.945,-0.427,-59.814,-26.672
0.530,0.372,-0.941,2.930,-64.819,-31.433
0.520,0.329,-0.928,8.789,-70.679,-34.363
0.500,0.297,-0.886,10.803,-75.134,-35.950
0.500,0.281,-0.841,8.972,-76.416,-35.461
0.503,0.292,-0.798,6.042,-75.439,-35.706
0.530,0.275,-0.784,3.174,-72.327,-39.429
0.541,0.242,-0.784,1.892,-68.420,-41.260
0.538,0.229,-0.780,1.343,-66.528,-39.307
0.536,0.226,-0.797,2.075,-66.101,-35.522
0.541,0.237,-0.824,2.991,-66.711,-32.104
0.543,0.236,-0.845,2.563,-68.604,-29.968
0.555,0.239,-0.860,0.061,-70.496,-29.236
0.571,0.236,-0.867,-1.953,-73.730,-28.931
0.586,0.228,-0.855,-2.808,-78.003,-29.175
0.592,0.234,-0.832,-1.953,-82.153,-28.259
0.612,0.223,-0.804,-1.099,-85.754,-28.320

1.547,0.087,1.272,-145.996,241.028,8.972
1.554,0.108,1.002,-187.744,348.877,-7.385
1.523,-0.034,0.571,-212.158,422.119,-13.672
1.521,0.180,0.208,-230.591,454.956,3.723
1.373,0.508,-0.115,-239.197,464.783,18.127
1.128,0.746,-0.357,-227.661,450.684,-1.953
0.841,0.708,-0.595,-176.392,424.744,-55.237
0.505,0.509,-0.815,-105.103,386.475,-114.685
0.204,0.114,-1.042,-35.095,346.741,-157.898
-0.094,-0.135,-1.181,20.081,305.908,-165.833
-0.346,-0.333,-1.237,37.170,257.568,-166.138
-0.491,-0.510,-1.336,27.893,228.271,-156.067
-0.525,-0.539,-1.394,5.005,218.750,-122.375
-0.574,-0.528,-1.404,-15.137,205.322,-77.087
-0.593,-0.450,-1.373,-23.926,182.007,-36.743
-0.536,-0.322,-1.341,-18.677,158.081,-7.874
-0.455,-0.180,-1.308,-8.301,135.193,10.986
-0.393,-0.065,-1.264,3.052,112.427,21.301
-0.347,0.036,-1.229,15.442,91.736,22.827
-0.256,0.106,-1.247,25.940,74.768,15.930
-0.210,0.128,-1.275,31.555,55.115,6.165
-0.198,0.102,-1.309,35.583,35.400,-3.296
-0.234,0.005,-1.309,39.612,15.625,-9.155
-0.156,0.024,-1.316,39.551,0.000,-10.620
-0.144,-0.008,-1.289,36.743,-17.517,-12.756
-0.109,-0.038,-1.245,36.255,-31.982,-12.756
-0.048,-0.059,-1.185,36.865,-44.922,-11.841
0.004,-0.074,-1.123,36.072,-57.678,-10.925
0.067,-0.076,-1.059,34.302,-68.420,-9.521
0.136,-0.080,-1.000,34.180,-77.759,-8.484
0.195,-0.099,-0.952,35.706,-84.900,-8.057
0.238,-0.123,-0.924,38.879,-88.440,-5.920
0.285,-0.125,-0.906,40.833,-90.149,-1.770
0.352,-0.102,-0.902,38.208,-89.722,3.113
0.407,-0.058,-0.906,31.921,-87.341,6.958
0.458,-0.017,-0.924,28.076,-83.740,8.972
