aX,aY,aZ,gX,gY,gZ
0.515,-1.878,0.233,-89.478,45.166,227.356
0.382,-1.822,0.414,-81.848,55.359,282.043
0.236,-1.697,0.532,-55.054,66.895,327.454
0.062,-1.522,0.631,-18.127,78.918,361.023
-0.244,-1.280,0.680,19.836,92.041,385.864
-0.489,-0.924,0.694,56.335,102.966,407.410
-0.809,-0.680,0.666,84.229,108.826,426.086
-1.034,-0.279,0.692,105.835,107.605,447.327
-1.193,0.077,0.672,125.977,101.440,465.332
-1.322,0.499,0.663,137.451,96.680,481.201
-1.344,0.885,0.796,143.677,97.412,486.145
-1.279,1.199,0.842,158.386,95.764,479.309
-1.226,1.491,0.849,177.063,94.299,456.238
-1.192,1.721,0.819,194.580,93.384,423.645
-1.205,2.019,0.760,202.454,94.299,390.686
-0.965,2.340,0.692,197.266,97.412,360.779
-1.219,2.420,0.464,196.289,83.374,342.957
-0.987,2.579,0.269,171.936,80.383,333.374
-0.601,2.632,0.385,129.333,76.660,309.204
-0.512,2.581,0.383,114.075,46.265,269.836
-0.398,2.418,0.399,104.065,38.452,224.731
-0.297,2.301,0.406,97.168,45.166,183.899
-0.280,2.168,0.360,98.938,45.776,148.499
-0.259,2.099,0.327,96.558,46.448,123.352
-0.203,2.020,0.315,88.989,42.908,106.506
-0.162,2.077,0.329,83.069,31.860,95.703
-0.130,1.988,0.321,75.073,20.935,84.106
-0.110,2.003,0.306,67.566,13.672,70.313
-0.063,2.036,0.313,59.570,13.306,51.453
-0.032,2.056,0.304,52.124,15.320,26.917
-0.014,2.019,0.272,44.800,15.930,-0.183
-0.035,1.942,0.223,35.828,13.306,-25.879
-0.071,1.842,0.179,24.231,7.751,-48.157
-0.084,1.689,0.191,8.240,0.610,-67.078
-0.093,1.498,0.244,-8.057,-7.874,-80.750
-0.091,1.325,0.303,-22.034,-13.794,-89.172
-0.074,1.145,0.345,-30.334,-17.395,-93.689
-0.047,1.011,0.371,-32.837,-20.630,-95.215
-0.027,0.942,0.416,-32.532,-23.682,-95.032
0.020,0.914,0.454,-30.945,-22.644,-94.238
0.031,0.905,0.461,-28.625,-22.461,-94.299
0.047,0.904,0.463,-28.503,-22.217,-95.947
0.058,0.926,0.486,-30.945,-19.775,-98.877
0.080,0.932,0.500,-35.217,-17.273,-100.586
0.104,0.948,0.505,-39.124,-13.550,-101.318
0.123,0.949,0.499,-42.419,-10.254,-101.990
0.125,0.941,0.492,-44.739,-8.728,-104.309
0.116,0.916,0.475,-45.715,-8.423,-107.788
0.103,0.896,0.452,-45.837,-8.606,-111.023
0.098,0.873,0.422,-46.692,-8.484,-112.793
0.096,0.867,0.389,-49.744,-8.545,-111.450
0.101,0.886,0.370,-54.199,-7.996,-107.544
0.119,0.921,0.352,-58.289,-6.897,-103.210
0.143,0.971,0.336,-61.768,-5.737,-100.037
0.172,1.019,0.323,-65.063,-5.371,-99.792
0.188,1.046,0.328,-69.153,-5.676,-102.539
0.213,1.047,0.342,-71.838,-5.737,-106.689
0.236,1.038,0.343,-72.021,-6.042,-111.328
0.254,1.038,0.342,-70.068,-6.165,-116.577
0.262,1.044,0.320,-66.528,-5.554,-122.131

-0.896,1.350,0.669,148.071,73.303,410.645
-0.879,1.730,0.592,148.560,80.383,399.597
-0.783,2.061,0.497,142.822,85.632,382.935
-0.623,2.273,0.443,132.935,84.351,357.727
-0.440,2.344,0.419,125.610,75.562,321.960
-0.321,2.279,0.394,125.549,64.087,279.480
-0.260,2.183,0.329,128.967,55.969,239.929
-0.204,2.102,0.251,127.380,52.429,210.144
-0.165,2.061,0.218,122.498,47.729,189.575
-0.168,1.986,0.149,114.929,38.208,178.833
-0.065,1.982,0.184,98.877,34.729,171.387
0.007,2.018,0.254,84.534,34.302,157.776
0.048,2.046,0.279,79.163,36.743,134.888
0.061,2.047,0.217,82.031,37.231,109.985
0.056,2.032,0.142,83.313,32.227,86.731
0.041,1.995,0.075,78.735,24.048,66.650
0.030,1.972,0.044,68.848,16.479,48.706
0.036,1.926,0.031,55.176,12.024,31.189
0.029,1.849,0.026,41.016,8.606,14.099
0.022,1.753,0.028,27.771,4.517,-1.038
0.010,1.650,0.029,16.968,-0.122,-13.916
-0.002,1.544,0.048,8.972,-5.310,-26.123
-0.015,1.450,0.072,3.723,-10.254,-37.109
-0.027,1.355,0.094,-0.366,-14.099,-47.241
-0.038,1.263,0.126,-4.150,-17.334,-56.030
-0.042,1.182,0.163,-8.728,-20.569,-62.134
-0.033,1.109,0.198,-12.756,-23.682,-66.467
-0.023,1.053,0.239,-16.113,-26.550,-69.702
-0.011,1.005,0.280,-18.494,-27.710,-71.411
0.003,0.968,0.319,-20.081,-28.137,-72.510
0.025,0.959,0.367,-20.203,-27.954,-73.486
0.045,0.968,0.394,-19.531,-26.062,-74.585
0.053,0.983,0.399,-19.714,-22.095,-76.477
0.071,0.992,0.415,-22.095,-18.311,-78.430
0.076,0.992,0.412,-24.231,-14.954,-79.834
0.075,0.989,0.402,-26.367,-11.719,-80.505
0.085,1.014,0.371,-29.175,-7.996,-79.407
0.096,1.045,0.333,-33.081,-5.432,-77.576
0.098,1.089,0.310,-37.537,-5.920,-76.660
0.117,1.150,0.303,-41.382,-6.226,-76.782
0.147,1.228,0.291,-43.945,-5.127,-78.491
0.161,1.310,0.272,-46.204,-4.822,-82.825
0.179,1.364,0.251,-49.500,-5.249,-90.088
0.194,1.383,0.229,-53.223,-5.249,-99.609
0.197,1.371,0.206,-56.519,-6.348,-110.168
0.191,1.342,0.194,-59.265,-8.240,-120.422
0.186,1.294,0.188,-61.523,-11.108,-128.845
0.193,1.249,0.197,-63.110,-14.160,-136.902
0.199,1.209,0.233,-63.477,-16.785,-144.531
0.230,1.185,0.268,-61.768,-17.761,-151.428
0.258,1.182,0.293,-57.434,-17.822,-159.485
0.266,1.174,0.288,-51.025,-17.456,-170.166
0.252,1.149,0.267,-45.654,-17.273,-181.641
0.246,1.119,0.245,-44.495,-16.418,-191.101
0.258,1.096,0.241,-47.852,-15.076,-197.815
0.257,1.066,0.242,-55.176,-13.184,-202.209
0.271,1.044,0.262,-65.002,-10.254,-204.529
0.289,1.041,0.277,-74.951,-5.920,-205.933
0.299,1.036,0.277,-83.008,-2.075,-208.069
0.312,1.035,0.282,-88.745,0.122,-211.853

-0.722,1.378,0.824,129.395,30.151,428.284
-0.709,1.698,0.811,132.874,37.170,414.246
-0.635,1.937,0.767,136.719,46.448,393.066
-0.471,2.242,0.794,140.991,47.974,370.911
-0.716,2.234,0.491,146.973,35.950,360.840
-0.395,2.445,0.452,112.854,63.782,336.426
-0.320,2.547,0.362,87.952,68.726,305.420
-0.190,2.509,0.392,71.228,58.533,255.371
-0.090,2.414,0.425,66.101,55.725,198.792
-0.089,2.244,0.390,75.134,56.458,150.818
-0.078,2.120,0.312,84.717,56.030,113.525
-0.127,1.924,0.216,88.745,53.711,85.449
-0.064,1.926,0.189,86.853,45.715,73.792
-0.078,1.922,0.179,81.177,30.640,71.472
-0.038,1.932,0.189,67.200,18.311,66.772
-0.000,1.960,0.216,50.293,13.367,56.641
0.034,1.973,0.230,37.842,14.771,38.879
0.053,1.958,0.198,31.189,16.418,16.357
0.047,1.903,0.152,26.123,14.648,-6.409
0.034,1.823,0.128,20.020,9.277,-26.794
0.008,1.715,0.103,12.329,2.075,-44.067
-0.010,1.595,0.099,2.136,-3.235,-56.763
0.001,1.482,0.125,-9.766,-7.812,-66.101
0.001,1.375,0.154,-20.203,-11.963,-73.547
0.010,1.261,0.190,-27.588,-15.381,-79.712
0.017,1.176,0.235,-31.738,-18.738,-83.374
0.039,1.114,0.267,-32.898,-22.339,-85.266
0.056,1.073,0.297,-32.959,-25.269,-86.365
0.064,1.043,0.330,-33.325,-26.489,-87.830
0.083,1.027,0.369,-34.241,-26.733,-89.722
0.096,1.019,0.387,-35.278,-25.696,-91.370
0.107,1.006,0.395,-36.499,-23.132,-92.834
0.121,0.988,0.398,-39.185,-20.752,-93.872
0.126,0.960,0.404,-43.152,-19.165,-94.238
0.131,0.933,0.422,-47.424,-17.944,-93.323
0.136,0.917,0.424,-50.598,-15.625,-90.759
0.139,0.931,0.409,-52.368,-11.841,-86.731
0.146,0.981,0.377,-53.772,-7.263,-82.275
0.159,1.047,0.336,-54.199,-4.456,-78.613
0.174,1.111,0.308,-53.589,-4.211,-77.820
0.192,1.169,0.277,-52.979,-5.554,-80.750
0.209,1.197,0.263,-54.321,-8.057,-86.792
0.216,1.213,0.265,-58.044,-10.254,-94.177
0.230,1.231,0.269,-65.857,-9.521,-99.548
0.236,1.256,0.270,-74.219,-5.737,-103.088
0.255,1.278,0.262,-81.238,-2.930,-105.591
0.279,1.304,0.250,-85.754,-2.258,-110.046
0.291,1.309,0.233,-86.548,-4.211,-117.615
0.299,1.303,0.231,-84.290,-7.874,-127.991
0.304,1.287,0.245,-79.712,-13.000,-141.235
0.310,1.262,0.269,-72.083,-17.029,-156.433
0.306,1.250,0.278,-62.134,-19.897,-173.340
0.275,1.204,0.225,-53.772,-20.752,-191.040
0.245,1.145,0.225,-56.824,-20.752,-204.468
0.245,1.105,0.263,-70.313,-19.226,-211.975
0.252,1.049,0.294,-86.365,-16.418,-216.187
0.261,0.978,0.322,-100.647,-13.977,-220.032
0.283,0.915,0.375,-111.145,-12.451,-224.792
0.304,0.841,0.391,-114.197,-11.414,-231.995
0.314,0.771,0.384,-109.985,-11.047,-242.065

-0.359,1.633,0.688,153.137,28.564,341.187
-0.290,1.823,0.627,152.283,29.663,321.594
-0.250,1.967,0.573,149.902,28.748,297.058
-0.141,2.108,0.514,145.447,28.381,271.912
-0.137,2.280,0.519,142.090,19.836,252.563
-0.229,2.378,0.300,131.348,7.751,243.103
0.058,2.529,0.292,92.041,28.687,224.915
0.098,2.553,0.260,62.805,33.936,202.698
0.237,2.542,0.261,40.588,37.781,161.072
0.263,2.382,0.226,33.081,43.640,115.417
0.246,2.230,0.170,35.156,42.664,74.158
0.205,2.042,0.068,42.725,36.987,39.490
0.168,1.906,0.017,45.044,25.818,19.714
0.160,1.797,0.023,39.734,9.277,12.146
0.180,1.720,0.077,28.442,-4.089,8.362
0.208,1.660,0.149,15.625,-8.850,1.160
0.213,1.608,0.190,6.348,-6.836,-10.010
0.198,1.541,0.180,1.099,-3.906,-23.437
0.196,1.460,0.154,-3.174,-4.089,-35.217
0.190,1.374,0.141,-8.362,-7.385,-45.105
0.192,1.283,0.174,-14.832,-11.841,-53.162
0.183,1.187,0.205,-19.897,-15.442,-59.509
0.191,1.090,0.243,-24.353,-17.151,-64.209
0.205,1.006,0.279,-28.320,-17.639,-66.711
0.210,0.937,0.306,-30.396,-17.761,-67.322
0.215,0.896,0.324,-31.616,-17.395,-65.613
0.224,0.882,0.340,-32.166,-16.602,-62.683
0.240,0.894,0.359,-32.104,-15.259,-60.120
0.260,0.919,0.384,-31.006,-13.245,-59.143
0.278,0.952,0.383,-28.687,-10.376,-60.120
0.284,0.977,0.365,-27.222,-7.141,-62.927
0.291,0.996,0.358,-28.198,-4.333,-66.223
0.299,1.004,0.346,-30.884,-1.465,-69.458
0.301,1.008,0.320,-33.752,1.282,-71.838
0.308,1.022,0.297,-36.682,3.601,-72.815
0.313,1.042,0.279,-39.673,4.028,-73.730
0.321,1.072,0.265,-42.419,2.991,-75.012
0.342,1.133,0.250,-44.556,2.686,-75.928
0.368,1.202,0.254,-45.837,2.441,-79.041
0.388,1.254,0.252,-45.654,2.136,-86.365
0.392,1.280,0.237,-44.312,2.380,-97.046
0.390,1.280,0.228,-43.274,2.563,-109.131
0.389,1.267,0.213,-43.152,2.869,-120.972
0.383,1.249,0.203,-45.044,2.991,-131.958
0.377,1.223,0.200,-49.194,2.686,-141.846
0.376,1.197,0.193,-54.016,3.174,-149.963
0.376,1.175,0.191,-59.204,4.150,-156.616
0.384,1.154,0.182,-64.148,4.395,-162.720
0.383,1.123,0.180,-68.909,3.784,-169.189
0.391,1.105,0.211,-74.158,2.930,-175.537
0.414,1.105,0.245,-77.698,3.540,-181.946
0.430,1.120,0.278,-78.186,6.165,-190.552
0.443,1.126,0.288,-76.965,9.277,-202.393
0.421,1.110,0.262,-74.280,12.207,-217.102
0.388,1.033,0.223,-73.364,12.207,-231.140
0.354,0.952,0.208,-75.500,8.728,-242.432
0.344,0.870,0.219,-79.285,4.700,-249.634
0.348,0.797,0.256,-82.214,1.953,-253.723
0.358,0.748,0.273,-83.252,0.916,-256.592
0.371,0.698,0.281,-82.520,1.770,-259.338

-0.192,2.164,0.284,67.688,13.611,242.187
-0.072,2.255,0.248,51.331,14.648,230.164
0.114,2.352,0.303,33.630,21.790,204.773
0.229,2.348,0.339,27.161,23.987,160.950
0.233,2.264,0.309,32.593,28.015,107.361
0.203,2.109,0.225,43.579,32.043,62.012
0.157,1.962,0.142,50.110,31.311,30.212
0.139,1.844,0.089,48.828,22.278,12.207
0.114,1.747,0.068,41.931,8.484,3.540
0.120,1.669,0.082,29.297,0.122,-0.793
0.147,1.622,0.105,14.587,-1.709,-4.822
0.160,1.577,0.122,2.075,-1.648,-12.268
0.167,1.533,0.127,-6.104,-1.953,-22.522
0.168,1.470,0.137,-12.146,-3.784,-33.691
0.166,1.394,0.151,-16.968,-7.263,-45.044
0.159,1.311,0.161,-20.142,-10.315,-55.542
0.152,1.222,0.169,-23.010,-11.780,-64.026
0.149,1.153,0.176,-25.208,-11.963,-69.580
0.150,1.098,0.181,-27.710,-11.719,-72.632
0.157,1.054,0.197,-30.518,-12.268,-72.998
0.170,1.018,0.224,-33.630,-13.611,-72.266
0.191,1.000,0.238,-36.133,-14.404,-70.923
0.191,0.983,0.256,-38.391,-14.038,-69.824
0.207,0.985,0.278,-40.405,-12.207,-68.604
0.224,1.004,0.284,-40.527,-10.010,-67.627
0.243,1.034,0.294,-40.161,-7.507,-68.054
0.264,1.065,0.297,-39.978,-4.761,-70.068
0.276,1.096,0.280,-40.466,-1.648,-73.303
0.271,1.117,0.257,-42.419,0.916,-77.454
0.268,1.133,0.224,-45.776,2.747,-81.116
0.270,1.156,0.187,-50.110,3.967,-83.435
0.279,1.187,0.161,-54.749,3.906,-85.266
0.296,1.217,0.146,-59.265,2.625,-87.952
0.303,1.232,0.143,-62.805,0.671,-92.407
0.321,1.266,0.145,-65.247,-1.221,-98.511
0.344,1.300,0.147,-67.383,-1.892,-106.018
0.351,1.316,0.130,-68.542,-1.404,-116.211
0.346,1.315,0.113,-69.763,-1.892,-127.563
0.340,1.305,0.122,-72.998,-2.808,-139.221
0.351,1.304,0.133,-76.355,-2.991,-150.513
0.343,1.289,0.132,-77.942,-2.808,-162.354
0.332,1.260,0.135,-79.956,-2.991,-174.255
0.332,1.239,0.151,-81.970,-3.723,-184.570
0.332,1.226,0.160,-82.703,-4.639,-195.251
0.320,1.216,0.143,-83.313,-5.371,-205.688
0.292,1.186,0.108,-85.144,-5.676,-214.661
0.286,1.151,0.089,-88.928,-8.545,-221.985
0.289,1.092,0.078,-92.834,-14.038,-229.248
0.281,1.002,0.100,-96.313,-21.057,-236.755
0.281,0.891,0.149,-99.182,-28.137,-243.469
0.285,0.781,0.189,-98.022,-33.752,-248.901
0.296,0.665,0.221,-92.834,-37.048,-254.089
0.304,0.569,0.245,-85.510,-39.185,-259.399
0.326,0.450,0.239,-75.134,-40.588,-264.709
0.338,0.304,0.229,-63.782,-42.419,-268.860
0.367,0.143,0.219,-55.237,-45.166,-271.423
0.407,-0.023,0.229,-49.194,-47.546,-271.423
0.432,-0.191,0.250,-45.105,-48.279,-268.005
0.481,-0.370,0.219,-43.701,-45.166,-258.240
0.509,-0.517,0.179,-45.593,-36.743,-239.685

-0.198,1.986,0.405,138.367,56.335,289.734
-0.147,2.080,0.384,144.409,58.716,251.282
-0.113,2.141,0.313,146.790,62.500,215.332
-0.096,2.196,0.220,143.677,67.505,184.387
-0.081,2.267,0.109,134.521,70.557,160.095
-0.035,2.344,-0.001,119.202,69.641,140.198
0.031,2.382,-0.056,100.525,62.927,121.704
0.071,2.392,-0.055,83.435,50.842,102.661
0.077,2.307,-0.137,68.359,36.987,86.426
0.164,2.255,-0.132,49.133,35.095,69.092
0.218,2.209,-0.106,34.546,32.776,47.974
0.232,2.149,-0.089,27.527,28.931,21.973
0.216,2.059,-0.102,26.306,23.865,-3.296
0.199,1.962,-0.126,25.513,15.991,-23.865
0.179,1.862,-0.136,19.104,7.019,-39.917
0.164,1.760,-0.121,7.751,1.099,-52.429
0.160,1.672,-0.090,-5.493,-1.404,-63.049
0.160,1.581,-0.055,-18.372,-2.991,-72.632
0.162,1.496,-0.021,-28.564,-4.883,-81.238
0.171,1.407,0.006,-35.034,-8.850,-89.233
0.166,1.315,0.028,-39.673,-14.160,-96.436
0.177,1.220,0.076,-43.701,-18.921,-101.624
0.184,1.133,0.103,-47.058,-22.522,-105.103
0.192,1.049,0.154,-51.086,-24.597,-106.567
0.210,0.964,0.192,-53.528,-25.574,-105.286
0.230,0.896,0.223,-54.688,-25.757,-102.356
0.252,0.861,0.250,-55.298,-23.376,-97.961
0.270,0.838,0.249,-54.810,-19.775,-93.445
0.283,0.845,0.246,-53.955,-16.296,-88.623
0.302,0.868,0.243,-52.734,-13.306,-84.167
0.316,0.915,0.235,-51.453,-10.925,-80.566
0.329,0.967,0.196,-50.110,-7.874,-77.881
0.350,1.011,0.156,-50.354,-5.554,-76.294
0.355,1.058,0.134,-52.612,-4.822,-76.294
0.387,1.087,0.145,-56.335,-4.944,-77.820
0.405,1.126,0.148,-58.716,-4.028,-81.421
0.409,1.169,0.141,-59.753,-1.465,-87.402
0.406,1.218,0.109,-60.913,1.587,-94.666
0.407,1.271,0.057,-62.561,4.517,-102.661
0.400,1.312,0.028,-64.453,4.395,-112.549
0.408,1.336,0.016,-64.514,0.671,-124.573
0.410,1.337,0.015,-61.462,-5.127,-139.587
0.401,1.304,0.012,-55.725,-12.512,-157.837
0.382,1.257,0.014,-49.683,-19.836,-177.002
0.363,1.193,0.035,-46.509,-24.902,-194.458
0.343,1.119,0.054,-47.607,-27.832,-208.496
0.326,1.048,0.073,-51.270,-28.625,-218.445
0.318,0.989,0.095,-56.702,-28.442,-225.342
0.317,0.927,0.130,-63.171,-28.259,-231.140
0.319,0.865,0.158,-67.688,-28.381,-237.000
0.320,0.802,0.180,-69.641,-27.893,-243.225
0.324,0.747,0.204,-70.618,-27.466,-250.305
0.320,0.678,0.207,-70.435,-26.123,-257.507
0.303,0.586,0.198,-68.970,-24.597,-264.343
0.288,0.483,0.171,-67.871,-24.109,-269.409
0.292,0.399,0.148,-68.420,-24.353,-271.362
0.298,0.274,0.141,-70.435,-25.452,-271.057
0.323,0.186,0.116,-72.205,-27.588,-268.311
0.344,0.059,0.093,-72.693,-30.151,-263.550
0.373,-0.083,0.058,-75.256,-34.424,-255.859

-0.369,1.829,0.590,122.925,84.961,371.948
-0.264,2.095,0.531,129.333,92.407,345.642
-0.178,2.301,0.417,137.512,98.145,310.303
-0.118,2.414,0.233,143.066,100.220,269.836
-0.042,2.449,0.101,140.991,96.863,230.042
0.030,2.411,0.017,135.681,86.975,193.054
0.091,2.311,-0.025,129.822,74.829,160.767
0.125,2.176,-0.050,122.559,63.904,134.094
0.149,2.056,-0.065,115.234,54.871,115.051
0.233,2.035,-0.030,106.323,46.692,102.600
0.102,1.918,-0.122,97.595,35.034,97.839
0.216,1.898,-0.109,76.538,36.316,92.834
0.245,1.872,-0.076,57.495,37.842,85.266
0.269,1.845,-0.046,46.204,37.659,68.481
0.240,1.802,-0.081,43.274,36.133,47.546
0.197,1.722,-0.142,42.969,32.593,30.151
0.163,1.645,-0.176,38.269,26.367,19.714
0.151,1.576,-0.169,28.015,17.395,13.550
0.160,1.525,-0.135,17.212,10.498,7.996
0.170,1.480,-0.108,8.972,7.446,1.038
0.171,1.425,-0.088,4.211,4.456,-6.470
0.168,1.359,-0.072,1.343,-0.549,-14.648
0.167,1.290,-0.048,-0.977,-6.348,-21.606
0.171,1.230,-0.007,-4.150,-11.292,-26.855
0.180,1.180,0.032,-7.507,-13.977,-30.701
0.193,1.148,0.064,-10.254,-14.893,-33.447
0.204,1.128,0.094,-13.184,-15.564,-34.973
0.226,1.111,0.130,-15.686,-16.724,-36.621
0.240,1.109,0.158,-16.296,-18.250,-39.795
0.258,1.098,0.170,-16.724,-18.555,-44.067
0.269,1.084,0.179,-18.005,-18.799,-48.462
0.272,1.072,0.197,-19.226,-19.104,-52.551
0.280,1.070,0.184,-19.653,-18.677,-56.091
0.279,1.070,0.182,-21.667,-18.066,-59.387
0.282,1.069,0.174,-24.597,-17.944,-61.523
0.289,1.072,0.163,-28.381,-17.639,-62.805
0.296,1.069,0.169,-33.752,-17.151,-63.721
0.310,1.076,0.171,-37.537,-16.235,-64.148
0.326,1.106,0.164,-38.818,-14.893,-66.833
0.340,1.132,0.165,-38.330,-13.855,-70.496
0.351,1.170,0.184,-36.926,-12.024,-76.538
0.378,1.205,0.176,-32.776,-9.277,-85.266
0.387,1.238,0.144,-27.283,-6.531,-96.619
0.400,1.268,0.113,-21.729,-5.249,-109.619
0.402,1.281,0.076,-15.808,-6.958,-124.756
0.402,1.259,0.039,-10.864,-11.169,-140.320
0.406,1.240,0.035,-10.803,-16.479,-153.625
0.414,1.251,0.071,-14.404,-19.592,-165.710
0.417,1.238,0.101,-19.775,-20.081,-177.551
0.422,1.196,0.135,-26.245,-18.677,-188.782
0.429,1.135,0.168,-33.997,-16.296,-199.097
0.438,1.052,0.196,-42.053,-14.526,-207.031
0.445,0.966,0.216,-47.607,-13.184,-212.952
0.457,0.887,0.226,-49.988,-12.207,-217.102
0.455,0.815,0.229,-50.537,-10.864,-219.849
0.460,0.779,0.219,-50.781,-8.667,-220.276
0.472,0.748,0.207,-51.086,-6.897,-219.299
0.479,0.709,0.198,-51.636,-6.165,-218.689
0.489,0.685,0.195,-54.626,-5.310,-218.933
0.496,0.674,0.227,-59.937,-4.333,-220.764

-1.253,1.267,0.640,123.169,101.501,468.079
-1.132,1.659,0.699,122.681,96.008,454.285
-1.105,2.007,0.640,122.986,95.825,433.411
-1.049,2.294,0.523,119.995,108.459,406.189
-0.992,2.590,0.367,113.708,119.385,377.380
-0.775,2.869,0.298,104.797,116.516,346.313
-0.878,2.845,0.080,95.825,93.933,327.759
-0.536,2.827,0.098,63.721,97.900,296.082
-0.380,2.790,0.153,38.147,89.478,263.428
-0.243,2.672,0.204,29.907,72.449,220.459
-0.146,2.501,0.233,36.865,68.909,167.786
-0.145,2.285,0.165,52.856,68.237,124.390
-0.155,2.164,0.090,64.148,67.322,90.698
-0.170,2.050,0.027,67.505,63.354,68.726
-0.137,1.974,-0.020,60.730,56.702,57.373
-0.105,1.931,-0.037,48.401,47.668,50.537
-0.089,1.871,-0.044,34.607,37.231,41.748
-0.069,1.805,-0.048,23.193,30.457,29.297
-0.070,1.725,-0.056,15.442,27.039,12.878
-0.095,1.644,-0.076,11.780,24.292,-3.967
-0.118,1.568,-0.114,10.681,21.057,-18.738
-0.131,1.516,-0.143,10.498,15.564,-30.396
-0.135,1.460,-0.140,8.301,6.104,-39.917
-0.136,1.422,-0.092,4.822,-4.028,-48.096
-0.100,1.412,-0.018,1.282,-11.108,-56.335
-0.061,1.410,0.024,-0.366,-13.672,-66.650
-0.045,1.400,0.049,-0.793,-15.503,-79.102
-0.037,1.376,0.073,-2.380,-18.921,-91.431
-0.016,1.337,0.098,-5.615,-23.621,-101.990
-0.010,1.296,0.141,-10.071,-27.893,-110.413
-0.001,1.261,0.201,-15.442,-30.945,-116.455
0.022,1.253,0.253,-18.921,-31.860,-120.300
0.053,1.268,0.303,-20.569,-30.945,-124.451
0.093,1.296,0.349,-21.301,-29.297,-130.066
0.117,1.317,0.368,-21.301,-27.161,-138.306
0.130,1.328,0.364,-21.362,-22.217,-147.766
0.127,1.315,0.324,-23.376,-17.334,-157.288
0.121,1.268,0.304,-28.564,-16.052,-165.466
0.135,1.228,0.306,-35.278,-15.686,-171.265
0.160,1.191,0.320,-40.894,-13.672,-175.659
0.179,1.150,0.311,-43.579,-11.597,-180.847
0.172,1.095,0.301,-44.495,-9.888,-186.218
0.166,1.036,0.290,-44.312,-9.521,-190.186
0.181,1.005,0.300,-41.687,-9.521,-191.895
0.223,1.014,0.338,-35.767,-10.620,-194.092
0.273,1.050,0.376,-25.330,-9.827,-199.829
0.321,1.092,0.400,-11.230,-5.493,-210.815
0.355,1.123,0.384,3.601,1.709,-226.929
0.325,1.104,0.293,18.066,10.071,-247.314
0.269,1.041,0.204,23.499,15.198,-264.282
0.250,0.977,0.167,16.357,17.395,-272.705
0.241,0.904,0.167,0.793,17.639,-274.231
0.286,0.879,0.240,-18.677,19.531,-269.409
0.353,0.877,0.297,-34.729,26.245,-264.343
0.382,0.869,0.333,-42.480,33.752,-264.893
0.397,0.849,0.339,-44.312,37.354,-270.447
0.412,0.813,0.333,-41.138,37.598,-279.846
0.408,0.754,0.305,-34.790,35.400,-292.908
0.381,0.668,0.259,-26.001,31.433,-306.519
0.361,0.580,0.225,-19.165,27.222,-317.383

-1.116,1.253,0.567,-11.353,109.985,568.176
-1.207,1.432,0.369,2.930,117.432,536.072
-1.238,1.691,0.227,23.743,118.408,504.333
-1.194,1.880,0.099,46.082,115.967,471.436
-1.120,2.082,0.064,65.674,109.741,434.021
-1.004,2.329,-0.010,79.529,104.309,395.203
-0.889,2.464,-0.085,86.182,98.816,353.699
-0.807,2.494,-0.138,83.618,90.088,309.204
-0.689,2.471,-0.153,75.317,79.712,270.264
-0.577,2.412,-0.144,65.796,70.557,235.901
-0.448,2.378,-0.107,58.594,62.439,201.843
-0.338,2.324,-0.091,53.894,54.749,164.917
-0.290,2.176,-0.104,48.035,48.157,128.845
-0.262,2.018,-0.097,38.269,43.091,101.135
-0.249,1.889,-0.087,27.344,38.879,81.848
-0.211,1.780,-0.064,18.433,34.180,68.176
-0.178,1.692,-0.040,13.489,28.320,55.969
-0.155,1.625,-0.023,12.573,22.583,42.847
-0.163,1.558,-0.014,14.893,17.517,28.564
-0.163,1.506,-0.023,18.250,13.367,14.648
-0.163,1.462,-0.037,20.874,9.460,2.197
-0.177,1.427,-0.040,20.813,5.066,-8.545
-0.179,1.381,-0.038,18.188,0.549,-18.555
-0.180,1.331,-0.038,14.160,-3.601,-27.466
-0.172,1.255,-0.015,9.277,-7.385,-34.729
-0.171,1.171,0.014,5.615,-11.963,-38.940
-0.141,1.121,0.050,3.113,-14.954,-41.199
-0.104,1.101,0.089,3.418,-17.334,-43.091
-0.085,1.096,0.127,6.714,-18.799,-46.692
-0.071,1.092,0.169,10.376,-18.616,-51.514
-0.053,1.120,0.190,14.160,-17.456,-57.373
-0.031,1.146,0.202,18.677,-15.137,-64.453
-0.019,1.181,0.214,21.118,-12.390,-73.486
-0.005,1.203,0.227,20.569,-8.972,-82.397
0.006,1.216,0.241,17.761,-6.409,-90.576
-0.010,1.225,0.250,14.465,-4.150,-99.731
0.003,1.212,0.260,10.803,-1.648,-109.009
0.006,1.222,0.261,6.958,2.075,-116.394
0.010,1.224,0.248,3.113,5.127,-122.864
0.024,1.221,0.237,0.366,6.348,-127.930
0.027,1.218,0.219,-0.610,6.836,-133.240
0.046,1.224,0.216,-0.977,8.057,-138.489
0.053,1.216,0.194,-0.854,9.216,-143.188
0.068,1.211,0.169,-0.977,10.315,-147.400
0.087,1.219,0.160,-1.709,10.498,-151.489
0.105,1.225,0.160,-3.418,9.705,-156.128
0.144,1.243,0.193,-6.470,9.583,-160.339
0.179,1.273,0.200,-9.094,12.878,-165.833
0.212,1.280,0.190,-9.827,18.066,-173.035
0.228,1.252,0.161,-11.475,21.057,-183.167
0.219,1.188,0.143,-15.686,20.081,-193.909
0.214,1.133,0.140,-21.912,16.663,-201.477
0.228,1.063,0.146,-28.198,12.817,-203.613
0.247,1.009,0.157,-32.349,9.888,-202.881
0.276,0.971,0.169,-33.936,7.202,-201.843
0.309,0.946,0.193,-33.447,4.517,-201.538
0.349,0.931,0.230,-31.128,2.808,-202.698
0.385,0.924,0.256,-27.039,3.174,-205.994
0.407,0.917,0.249,-21.301,5.920,-211.304
0.404,0.897,0.219,-15.991,8.911,-217.834

-1.045,1.588,0.601,82.214,73.547,402.527
-0.941,1.961,0.628,91.858,67.871,390.137
-0.713,2.449,0.781,101.746,58.960,368.469
-0.912,2.475,0.536,112.427,34.973,354.370
-0.555,2.606,0.525,86.548,45.410,330.872
-0.278,2.704,0.593,60.974,50.720,297.791
-0.144,2.771,0.595,52.246,38.696,247.925
-0.037,2.728,0.594,49.805,46.387,186.646
-0.004,2.616,0.499,58.228,57.129,125.549
-0.058,2.468,0.337,67.383,65.186,79.041
-0.084,2.344,0.192,67.749,67.322,53.040
-0.115,2.221,0.068,57.678,54.382,42.786
-0.114,2.145,0.031,39.795,34.302,39.307
-0.067,2.093,0.046,19.775,23.865,32.166
-0.042,2.008,0.069,5.188,22.461,16.785
-0.037,1.914,0.061,-0.732,21.912,-3.845
-0.055,1.785,0.040,-0.793,19.409,-26.672
-0.092,1.623,0.010,1.709,14.709,-47.119
-0.117,1.472,-0.013,3.967,7.874,-62.622
-0.151,1.323,-0.025,4.517,-0.244,-72.876
-0.198,1.202,-0.036,2.014,-6.836,-78.430
-0.194,1.077,-0.016,-3.662,-11.047,-77.820
-0.167,1.012,0.015,-10.681,-14.221,-72.021
-0.133,0.991,0.074,-17.212,-18.188,-64.453
-0.096,0.983,0.132,-20.325,-23.010,-58.655
-0.066,0.987,0.188,-20.081,-26.550,-56.946
-0.038,0.986,0.241,-16.968,-29.358,-58.350
-0.019,0.983,0.272,-13.000,-31.067,-60.608
0.001,0.977,0.293,-10.315,-30.151,-61.951
0.013,0.965,0.313,-9.094,-28.076,-62.256
0.030,0.973,0.350,-8.972,-25.024,-62.012
0.044,0.987,0.369,-9.033,-21.606,-61.707
0.052,0.996,0.373,-8.789,-17.822,-62.073
0.058,1.016,0.365,-8.423,-13.733,-62.012
0.068,1.046,0.358,-8.606,-9.766,-62.317
0.084,1.081,0.354,-8.667,-7.202,-63.477
0.095,1.111,0.328,-7.324,-5.371,-65.857
0.105,1.129,0.302,-7.141,-4.517,-70.190
0.113,1.136,0.282,-8.301,-4.089,-74.524
0.111,1.134,0.264,-10.193,-3.662,-78.247
0.116,1.132,0.254,-13.672,-3.662,-81.238
0.134,1.142,0.242,-18.005,-3.906,-82.947
0.156,1.160,0.235,-22.400,-3.174,-84.412
0.180,1.170,0.238,-27.893,-2.197,-87.402
0.201,1.165,0.250,-32.776,-1.709,-91.736
0.237,1.167,0.269,-35.828,-1.282,-96.558
0.251,1.166,0.268,-35.767,0.183,-102.783
0.251,1.166,0.255,-32.898,1.587,-110.474
0.263,1.160,0.229,-29.358,1.953,-118.408
0.265,1.146,0.198,-27.222,0.732,-126.282
0.267,1.118,0.181,-26.855,-1.404,-133.423
0.271,1.095,0.182,-27.283,-3.906,-139.404
0.282,1.080,0.189,-28.442,-4.639,-144.653
0.294,1.075,0.175,-30.090,-4.272,-148.987
0.294,1.046,0.152,-32.532,-3.784,-153.503
0.297,1.007,0.162,-37.964,-4.578,-156.555
0.321,0.973,0.187,-43.884,-5.432,-158.142
0.350,0.949,0.206,-47.302,-6.104,-159.424
0.376,0.922,0.222,-48.279,-6.470,-162.109
0.402,0.907,0.240,-46.265,-6.042,-165.955

-0.662,1.441,0.710,97.534,70.068,350.342
-0.663,1.674,0.637,100.525,80.933,335.876
-0.458,2.065,0.693,102.417,81.055,322.083
-0.670,2.108,0.460,109.131,57.129,318.054
-0.424,2.153,0.378,87.769,67.139,304.199
-0.190,2.334,0.476,58.350,73.547,290.222
-0.102,2.342,0.521,47.791,54.993,253.296
-0.032,2.309,0.560,52.124,56.091,202.332
-0.019,2.272,0.485,68.237,64.819,155.884
-0.026,2.168,0.343,85.205,67.017,121.765
-0.016,2.229,0.260,89.172,66.589,92.834
-0.022,2.221,0.185,88.440,58.411,74.402
-0.004,2.211,0.116,78.918,45.593,64.819
0.023,2.186,0.096,62.744,31.006,57.495
0.049,2.132,0.110,42.725,23.682,45.471
0.065,2.063,0.110,27.405,23.926,27.771
0.059,1.982,0.066,20.142,26.001,7.935
0.024,1.868,0.008,16.602,23.193,-10.864
-0.006,1.750,-0.014,12.024,15.198,-26.917
-0.026,1.641,-0.007,6.958,6.348,-38.879
-0.035,1.535,0.008,2.136,-0.183,-49.011
-0.040,1.434,0.023,-2.258,-4.211,-57.434
-0.042,1.341,0.048,-6.409,-7.629,-63.904
-0.034,1.272,0.072,-10.559,-11.169,-68.054
-0.022,1.229,0.103,-14.099,-15.320,-70.801
-0.007,1.193,0.125,-16.602,-19.287,-72.998
0.003,1.153,0.160,-19.348,-23.193,-75.012
0.022,1.129,0.206,-22.705,-26.611,-76.294
0.043,1.114,0.247,-25.757,-29.114,-77.271
0.068,1.106,0.287,-28.015,-30.518,-78.491
0.084,1.102,0.311,-29.236,-30.396,-80.933
0.096,1.094,0.322,-30.457,-29.175,-83.801
0.107,1.082,0.331,-32.532,-27.649,-86.426
0.121,1.058,0.335,-34.851,-26.062,-88.867
0.127,1.041,0.335,-36.926,-24.353,-90.942
0.137,1.041,0.343,-38.574,-22.827,-92.407
0.161,1.057,0.343,-38.757,-20.752,-93.323
0.177,1.083,0.326,-37.292,-18.494,-94.971
0.196,1.123,0.321,-36.133,-16.907,-97.717
0.224,1.165,0.326,-34.729,-16.296,-102.173
0.239,1.202,0.317,-31.799,-16.418,-108.826
0.256,1.242,0.311,-31.128,-16.724,-117.065
0.271,1.264,0.295,-33.325,-15.808,-124.817
0.283,1.261,0.267,-37.964,-14.343,-130.859
0.295,1.235,0.244,-44.434,-14.465,-137.207
0.303,1.194,0.248,-52.551,-15.808,-142.700
0.316,1.147,0.260,-58.350,-16.235,-147.400
0.325,1.118,0.288,-60.486,-16.602,-152.710
0.346,1.123,0.314,-58.899,-15.564,-158.813
0.367,1.145,0.331,-53.955,-13.245,-167.542
0.377,1.159,0.315,-46.265,-10.681,-179.749
0.367,1.162,0.293,-37.598,-9.583,-195.435
0.349,1.146,0.259,-31.555,-10.010,-211.914
0.324,1.094,0.222,-32.043,-10.864,-225.891
0.305,1.019,0.218,-40.222,-10.071,-234.680
0.303,0.945,0.236,-52.551,-8.240,-239.075
0.302,0.871,0.261,-64.392,-5.920,-241.272
0.300,0.787,0.278,-72.449,-4.639,-242.798
0.295,0.721,0.276,-76.050,-3.601,-244.690
0.303,0.659,0.273,-75.928,-3.601,-247.314

-0.874,1.757,0.430,83.862,104.736,402.710
-0.744,2.074,0.391,79.529,105.591,383.606
-0.588,2.219,0.424,80.811,88.501,348.877
-0.418,2.255,0.500,86.853,63.232,304.260
-0.552,2.192,0.477,97.290,37.659,266.846
-0.504,2.192,0.428,91.553,31.494,248.108
-0.383,2.265,0.446,68.604,42.603,231.750
-0.259,2.361,0.479,50.049,44.373,211.304
-0.171,2.437,0.516,43.518,50.293,174.866
-0.132,2.425,0.483,50.537,54.626,130.432
-0.137,2.331,0.367,63.354,56.824,88.684
-0.177,2.235,0.265,69.153,53.711,55.054
-0.214,2.129,0.134,65.369,43.640,33.997
-0.235,2.032,0.056,51.331,30.884,22.156
-0.215,1.937,0.060,31.372,24.231,12.573
-0.177,1.844,0.089,13.733,21.057,1.404
-0.158,1.747,0.102,4.272,18.311,-13.428
-0.165,1.635,0.082,1.465,14.526,-30.518
-0.191,1.522,0.058,0.488,8.484,-45.593
-0.200,1.408,0.045,-1.953,1.526,-56.519
-0.198,1.295,0.062,-6.287,-4.883,-64.026
-0.185,1.207,0.114,-11.902,-10.193,-68.359
-0.156,1.141,0.151,-16.602,-13.367,-70.557
-0.123,1.088,0.186,-19.226,-13.855,-71.838
-0.102,1.044,0.220,-20.508,-13.977,-72.937
-0.084,1.009,0.257,-20.569,-15.869,-73.914
-0.066,0.994,0.281,-19.409,-17.273,-74.707
-0.048,1.001,0.300,-19.348,-17.334,-75.134
-0.023,1.023,0.338,-20.569,-16.174,-74.829
0.006,1.060,0.368,-21.362,-14.038,-75.012
0.031,1.097,0.372,-21.301,-11.108,-76.233
0.047,1.128,0.364,-20.996,-9.094,-78.491
0.064,1.155,0.359,-21.057,-8.240,-82.581
0.086,1.169,0.357,-22.034,-7.751,-87.585
0.096,1.176,0.347,-24.231,-6.714,-93.079
0.104,1.174,0.350,-27.161,-5.859,-98.572
0.107,1.182,0.354,-30.151,-4.456,-103.577
0.117,1.206,0.354,-32.654,-1.526,-107.971
0.135,1.232,0.346,-33.936,0.916,-113.159
0.151,1.258,0.327,-32.715,1.709,-120.850
0.160,1.255,0.294,-30.212,1.099,-130.859
0.158,1.244,0.272,-29.846,-0.122,-142.334
0.159,1.220,0.245,-32.104,0.000,-151.978
0.160,1.197,0.222,-37.781,0.549,-159.546
0.158,1.163,0.200,-45.471,1.404,-165.039
0.172,1.131,0.216,-53.772,0.977,-168.823
0.199,1.115,0.253,-60.608,0.671,-172.668
0.225,1.098,0.268,-62.805,2.075,-177.917
0.243,1.091,0.264,-60.181,4.089,-184.875
0.247,1.081,0.250,-54.504,4.211,-194.153
0.255,1.066,0.236,-46.143,2.747,-204.834
0.255,1.043,0.215,-36.499,0.244,-216.431
0.260,1.008,0.194,-28.687,-2.930,-227.844
0.276,0.970,0.187,-25.146,-5.310,-238.159
0.280,0.916,0.182,-26.123,-5.676,-246.155
0.281,0.849,0.175,-31.616,-4.700,-251.282
0.286,0.779,0.176,-40.894,-2.747,-252.686
0.294,0.714,0.187,-50.903,-1.587,-251.587
0.312,0.637,0.193,-58.167,-1.404,-249.084
0.324,0.562,0.202,-61.035,-2.441,-245.850

-0.816,1.486,0.634,49.194,11.353,397.278
-0.702,1.866,0.643,35.522,20.569,399.536
-0.530,2.201,0.696,27.893,26.733,382.629
-0.313,2.446,0.737,30.762,29.907,346.130
-0.252,2.531,0.695,45.532,26.611,297.119
-0.291,2.432,0.530,54.138,22.644,255.615
-0.178,2.378,0.447,40.100,34.546,220.459
-0.131,2.319,0.365,23.254,40.588,191.833
-0.069,2.283,0.380,10.071,46.692,159.668
-0.052,2.218,0.337,8.911,49.988,126.038
-0.056,2.141,0.262,17.029,51.147,94.849
-0.070,2.070,0.177,25.330,46.936,68.665
-0.102,2.000,0.075,29.114,35.278,50.781
-0.102,1.946,0.020,24.902,22.400,38.757
-0.065,1.902,0.015,15.991,14.893,25.818
-0.047,1.849,0.015,8.606,12.390,8.728
-0.049,1.789,0.012,5.554,10.071,-10.132
-0.048,1.712,0.007,4.944,6.104,-28.809
-0.051,1.633,0.005,5.127,0.488,-45.227
-0.060,1.531,0.023,2.991,-5.310,-59.204
-0.065,1.423,0.049,-0.732,-9.521,-71.472
-0.061,1.324,0.077,-5.005,-11.780,-80.627
-0.089,1.218,0.098,-10.132,-13.367,-85.693
-0.085,1.117,0.116,-16.602,-14.221,-86.426
-0.062,1.044,0.149,-22.949,-15.503,-83.374
-0.037,0.992,0.187,-27.344,-18.738,-79.651
-0.018,0.962,0.232,-29.175,-21.301,-76.782
0.004,0.963,0.267,-26.978,-21.362,-75.012
0.022,0.990,0.285,-21.790,-21.118,-74.341
0.044,1.023,0.288,-15.259,-23.071,-76.355
0.056,1.048,0.287,-10.925,-24.353,-79.468
0.078,1.069,0.290,-11.230,-23.193,-81.909
0.102,1.089,0.302,-15.625,-20.081,-82.947
0.121,1.099,0.317,-22.156,-15.869,-84.290
0.130,1.108,0.329,-28.320,-10.803,-86.548
0.130,1.124,0.334,-32.043,-6.531,-89.783
0.149,1.148,0.341,-33.081,-3.052,-93.445
0.158,1.179,0.333,-31.128,-0.977,-98.755
0.163,1.211,0.328,-26.123,-0.610,-105.591
0.186,1.251,0.302,-18.311,-2.014,-113.831
0.195,1.295,0.254,-9.399,-3.967,-124.634
0.199,1.317,0.208,-4.028,-6.958,-136.719
0.201,1.336,0.200,-6.042,-10.193,-147.949
0.206,1.335,0.193,-13.855,-10.010,-157.288
0.203,1.320,0.185,-25.940,-7.568,-164.246
0.211,1.293,0.195,-39.307,-4.456,-170.166
0.227,1.256,0.209,-50.842,-2.625,-176.636
0.245,1.204,0.213,-56.335,-2.502,-185.120
0.250,1.139,0.218,-55.908,-4.333,-195.984
0.249,1.074,0.219,-50.903,-7.507,-207.031
0.252,1.010,0.209,-43.213,-11.353,-217.102
0.257,0.949,0.205,-34.668,-14.709,-225.769
0.261,0.889,0.201,-27.039,-17.517,-233.032
0.276,0.843,0.202,-22.339,-18.433,-238.403
0.280,0.804,0.187,-20.508,-17.639,-242.554
0.279,0.764,0.177,-22.705,-15.381,-245.544
0.293,0.741,0.183,-30.273,-12.451,-246.216
0.288,0.645,0.196,-40.100,-9.583,-245.178
0.299,0.581,0.189,-52.612,-5.493,-242.676
0.339,0.523,0.190,-64.148,-1.831,-238.647

-0.836,1.399,0.487,85.876,110.840,407.166
-0.859,1.616,0.414,89.966,119.385,386.230
-0.833,1.839,0.336,93.811,120.789,364.197
-0.755,2.037,0.256,98.083,117.126,338.928
-0.680,2.209,0.209,102.783,109.497,309.631
-0.595,2.341,0.164,105.896,101.807,277.466
-0.488,2.438,0.115,105.957,94.482,244.568
-0.376,2.535,0.105,106.323,85.022,212.830
-0.449,2.458,-0.061,106.079,71.655,188.110
-0.304,2.406,-0.077,91.919,68.787,166.565
-0.167,2.464,-0.065,73.059,63.965,142.944
-0.130,2.427,-0.021,63.965,58.289,109.375
-0.145,2.341,-0.030,64.148,55.847,72.815
-0.137,2.241,-0.087,64.758,51.819,43.274
-0.163,2.121,-0.140,60.791,44.312,22.034
-0.176,2.013,-0.158,49.866,33.997,8.240
-0.169,1.937,-0.172,35.156,25.330,-2.441
-0.143,1.852,-0.145,18.982,18.372,-16.235
-0.122,1.751,-0.088,4.761,9.827,-33.997
-0.113,1.622,-0.034,-3.418,-0.061,-52.979
-0.106,1.492,0.015,-6.348,-9.705,-70.374
-0.104,1.357,0.058,-6.287,-18.311,-84.473
-0.105,1.228,0.105,-5.554,-24.658,-94.543
-0.095,1.118,0.132,-5.981,-27.771,-100.281
-0.075,1.033,0.160,-8.545,-28.320,-102.478
-0.063,0.992,0.201,-13.184,-27.344,-101.440
-0.039,0.986,0.245,-18.921,-26.062,-98.694
-0.011,0.990,0.274,-24.292,-23.926,-95.276
0.018,1.008,0.316,-29.358,-21.912,-92.834
0.050,1.034,0.350,-33.569,-19.714,-91.980
0.076,1.071,0.361,-36.499,-16.357,-93.018
0.094,1.104,0.352,-38.635,-12.024,-95.581
0.112,1.134,0.344,-40.283,-8.057,-99.731
0.120,1.153,0.338,-40.405,-5.737,-105.469
0.126,1.169,0.328,-38.452,-4.333,-111.572
0.131,1.203,0.322,-34.851,-3.235,-117.981
0.152,1.253,0.305,-29.419,-2.441,-124.817
0.169,1.304,0.269,-24.353,-2.441,-133.362
0.173,1.338,0.232,-23.926,-2.991,-143.860
0.163,1.338,0.196,-29.114,-4.150,-152.832
0.154,1.339,0.196,-39.551,-4.700,-159.424
0.169,1.333,0.203,-51.514,-4.333,-164.062
0.182,1.316,0.218,-61.584,-3.357,-169.067
0.196,1.281,0.237,-67.810,-2.441,-176.270
0.218,1.233,0.246,-69.885,-2.075,-185.364
0.237,1.190,0.257,-68.237,-1.892,-195.862
0.250,1.142,0.259,-62.500,-1.282,-207.642
0.254,1.093,0.242,-54.932,-0.183,-219.299
0.249,1.039,0.197,-47.424,0.916,-230.347
0.243,0.994,0.162,-41.809,0.366,-239.563
0.250,0.947,0.154,-39.490,-0.854,-246.704
0.256,0.887,0.146,-39.673,-1.709,-251.587
0.272,0.823,0.136,-41.748,-1.770,-254.639
0.289,0.775,0.137,-46.509,-1.709,-255.493
0.299,0.687,0.126,-51.147,-1.953,-255.737
0.307,0.618,0.125,-56.885,-1.892,-254.272
0.337,0.563,0.146,-62.683,-1.282,-250.732
0.371,0.513,0.158,-64.209,-0.671,-246.704
0.396,0.488,0.166,-63.171,-0.122,-244.812
0.407,0.432,0.153,-59.753,0.183,-243.958

-0.825,1.474,0.510,-10.071,114.319,474.976
-0.793,1.634,0.530,16.357,111.755,437.134
-0.837,1.624,0.415,52.307,109.131,394.592
-0.848,1.732,0.328,82.214,108.826,359.924
-0.836,1.852,0.238,96.497,112.793,329.956
-0.803,1.986,0.134,100.952,113.647,303.406
-0.727,2.093,0.101,97.168,111.572,277.344
-0.665,2.159,0.046,92.224,109.070,249.207
-0.607,2.211,-0.004,87.646,105.042,219.666
-0.567,2.224,-0.094,83.984,101.257,188.538
-0.520,2.222,-0.165,79.651,94.543,157.654
-0.477,2.193,-0.197,74.829,84.229,127.258
-0.490,2.146,-0.247,69.763,71.350,101.135
-0.455,2.094,-0.279,61.523,59.753,79.956
-0.416,2.058,-0.264,50.720,48.645,61.462
-0.360,2.031,-0.206,41.931,38.147,41.504
-0.324,1.977,-0.165,38.574,28.564,18.860
-0.317,1.894,-0.154,38.574,21.301,-3.113
-0.314,1.795,-0.138,37.109,14.526,-21.912
-0.328,1.688,-0.137,32.898,7.141,-37.170
-0.315,1.595,-0.111,24.963,0.854,-49.316
-0.301,1.502,-0.068,15.442,-5.371,-60.120
-0.292,1.402,-0.024,6.470,-11.719,-69.397
-0.269,1.314,0.015,-0.549,-17.273,-75.745
-0.244,1.235,0.061,-5.371,-22.339,-80.200
-0.221,1.165,0.099,-7.874,-26.306,-83.862
-0.207,1.113,0.146,-8.484,-28.564,-86.853
-0.194,1.069,0.190,-7.202,-29.480,-89.661
-0.185,1.034,0.216,-5.981,-29.175,-92.163
-0.175,1.005,0.231,-6.287,-27.954,-93.567
-0.155,0.988,0.244,-7.446,-26.611,-93.872
-0.135,0.983,0.253,-9.094,-24.719,-93.323
-0.124,0.991,0.251,-11.475,-22.339,-92.163
-0.112,1.008,0.244,-14.954,-19.775,-91.187
-0.100,1.036,0.225,-18.494,-17.883,-90.149
-0.079,1.065,0.234,-22.766,-17.822,-89.111
-0.048,1.099,0.239,-26.123,-18.188,-88.623
-0.022,1.127,0.240,-27.405,-17.822,-89.539
-0.004,1.151,0.221,-27.954,-16.418,-91.736
0.006,1.166,0.184,-29.907,-14.832,-94.788
-0.001,1.162,0.151,-32.532,-13.672,-97.900
-0.001,1.142,0.151,-38.208,-14.954,-100.281
0.026,1.124,0.163,-44.495,-16.785,-101.257
0.046,1.113,0.182,-48.645,-17.395,-102.600
0.060,1.104,0.185,-51.086,-16.174,-105.469
0.071,1.098,0.167,-52.246,-13.184,-108.887
0.078,1.085,0.145,-51.575,-11.658,-113.037
0.083,1.078,0.122,-49.255,-12.146,-117.798
0.091,1.079,0.090,-47.119,-13.794,-122.864
0.107,1.096,0.084,-47.424,-15.747,-127.319
0.138,1.135,0.081,-49.622,-16.479,-131.958
0.151,1.169,0.077,-52.124,-15.503,-138.794
0.161,1.191,0.065,-54.382,-13.916,-146.973
0.198,1.231,0.073,-56.335,-13.855,-156.067
0.244,1.268,0.094,-55.786,-13.916,-168.335
0.269,1.274,0.097,-51.697,-13.733,-185.059
0.266,1.236,0.070,-44.739,-14.771,-204.651
0.251,1.181,0.042,-37.354,-18.250,-222.900
0.243,1.131,0.033,-31.616,-22.644,-237.183
0.256,1.094,0.057,-29.236,-26.611,-247.498

-0.692,-1.450,0.569,41.077,-2.930,392.029
-1.006,-1.028,0.575,48.218,13.000,456.848
-1.240,-0.423,0.652,45.166,31.250,517.883
-1.456,0.245,0.743,34.790,52.612,565.796
-1.547,0.984,0.706,22.766,78.979,601.685
-1.479,1.674,0.611,8.301,104.370,615.479
-1.180,2.250,0.614,-1.160,117.920,593.567
-0.893,2.475,0.625,16.357,117.126,530.823
-0.754,2.474,0.550,64.270,111.694,445.190
-0.742,2.356,0.401,115.784,105.774,360.718
-0.711,2.278,0.229,150.635,100.220,296.936
-0.632,2.217,0.141,163.391,92.834,255.615
-0.546,2.173,0.125,160.339,83.069,230.591
-0.393,2.182,0.173,148.437,72.937,214.539
-0.421,2.182,0.179,134.949,57.495,205.688
-0.298,2.186,0.154,113.892,49.255,199.341
-0.179,2.226,0.200,87.830,50.964,184.204
-0.097,2.215,0.211,70.068,48.584,158.630
-0.059,2.185,0.217,63.477,50.964,122.986
-0.074,2.127,0.152,66.772,52.185,87.158
-0.097,2.052,0.041,69.580,51.086,58.350
-0.151,1.977,-0.056,65.613,43.884,38.025
-0.170,1.916,-0.095,53.467,32.593,25.635
-0.157,1.866,-0.095,38.574,23.499,15.747
-0.141,1.808,-0.062,25.635,18.616,3.723
-0.129,1.740,-0.048,18.433,13.977,-10.254
-0.130,1.659,-0.047,15.381,7.751,-25.574
-0.136,1.576,-0.048,13.000,1.282,-38.391
-0.139,1.490,-0.034,8.545,-3.845,-47.729
-0.130,1.417,-0.001,1.770,-8.362,-54.199
-0.114,1.352,0.047,-5.066,-11.902,-59.021
-0.097,1.293,0.100,-12.268,-14.648,-63.354
-0.080,1.247,0.156,-18.860,-16.907,-68.054
-0.067,1.209,0.206,-22.156,-18.860,-72.998
-0.044,1.182,0.252,-22.461,-20.447,-77.881
-0.024,1.181,0.282,-21.057,-20.996,-83.374
-0.001,1.192,0.295,-19.043,-20.020,-89.233
0.009,1.202,0.295,-18.188,-18.494,-95.703
0.011,1.193,0.293,-20.447,-17.090,-101.685
0.019,1.182,0.294,-25.635,-15.259,-105.591
0.035,1.176,0.303,-31.738,-13.611,-107.788
0.056,1.166,0.314,-36.377,-12.634,-109.253
0.089,1.160,0.317,-39.063,-11.658,-111.633
0.119,1.154,0.317,-39.368,-9.766,-115.112
0.139,1.137,0.317,-37.109,-8.423,-120.728
0.171,1.119,0.320,-33.508,-7.690,-126.953
0.186,1.100,0.305,-28.625,-7.812,-134.033
0.183,1.075,0.268,-21.729,-7.751,-141.418
0.198,1.079,0.245,-18.066,-7.874,-147.156
0.224,1.088,0.251,-17.578,-7.019,-151.672
0.249,1.100,0.248,-17.639,-5.615,-156.372
0.273,1.109,0.251,-18.127,-3.418,-161.804
0.294,1.110,0.248,-18.860,-1.282,-167.664
0.316,1.103,0.237,-20.203,0.000,-174.744
0.326,1.059,0.212,-22.949,0.671,-182.129
0.322,1.003,0.217,-29.419,1.038,-188.293
0.343,0.945,0.254,-37.598,1.648,-192.017
0.369,0.907,0.273,-44.556,5.493,-192.871
0.373,0.884,0.274,-49.377,11.597,-192.749
0.390,0.868,0.247,-51.819,16.724,-191.589

-0.603,1.453,0.695,74.280,5.127,427.307
-0.519,1.633,0.747,68.054,14.465,412.048
-0.433,1.747,0.779,68.665,21.484,387.146
-0.309,1.886,0.848,74.341,27.588,356.018
-0.475,1.943,0.722,85.449,25.696,330.139
-0.427,2.025,0.608,80.505,33.081,313.293
-0.328,2.184,0.568,59.448,46.082,293.274
-0.312,2.260,0.515,37.292,49.133,265.625
-0.177,2.268,0.522,20.996,56.824,229.370
-0.178,2.264,0.510,18.372,60.364,187.561
-0.186,2.169,0.431,27.588,61.157,147.644
-0.203,2.082,0.298,38.452,60.608,117.126
-0.231,1.994,0.195,42.236,53.955,95.520
-0.215,1.942,0.152,37.964,44.067,78.674
-0.201,1.879,0.145,32.837,36.682,61.951
-0.194,1.811,0.141,30.518,33.325,42.847
-0.194,1.735,0.128,30.334,29.175,22.705
-0.203,1.652,0.090,31.006,23.254,4.883
-0.203,1.564,0.069,28.625,16.174,-8.972
-0.198,1.486,0.076,22.339,8.545,-19.775
-0.196,1.412,0.085,15.015,2.625,-28.870
-0.187,1.342,0.104,7.141,-1.648,-36.804
-0.169,1.272,0.135,-0.793,-5.554,-42.603
-0.155,1.198,0.162,-8.362,-10.864,-46.631
-0.145,1.108,0.196,-15.747,-16.113,-49.316
-0.118,1.034,0.253,-22.705,-19.714,-50.354
-0.087,0.983,0.308,-26.489,-21.362,-51.086
-0.064,0.938,0.347,-25.757,-22.217,-52.185
-0.054,0.909,0.378,-22.034,-22.522,-53.528
-0.044,0.907,0.401,-17.456,-22.400,-54.871
-0.029,0.926,0.425,-12.756,-21.423,-56.641
-0.021,0.958,0.445,-7.568,-19.653,-59.753
-0.006,1.005,0.452,-2.014,-16.541,-63.904
0.000,1.057,0.425,2.563,-12.878,-69.580
0.001,1.085,0.402,3.723,-9.766,-75.317
-0.007,1.119,0.389,0.977,-7.019,-80.322
-0.021,1.164,0.379,-4.761,-4.089,-84.045
-0.026,1.235,0.365,-11.292,-0.977,-87.219
-0.008,1.315,0.350,-17.456,1.465,-91.431
0.017,1.389,0.353,-21.912,3.479,-98.816
0.049,1.447,0.365,-23.193,4.395,-111.023
0.056,1.476,0.362,-19.470,4.944,-127.686
0.049,1.490,0.346,-12.146,4.700,-147.522
0.068,1.516,0.341,-5.981,4.028,-168.579
0.069,1.523,0.329,-1.526,3.357,-190.674
0.077,1.493,0.307,0.366,2.014,-211.365
0.079,1.437,0.298,-2.930,0.671,-229.553
0.079,1.385,0.321,-11.902,-0.244,-244.141
0.104,1.336,0.375,-24.719,0.305,-254.944
0.134,1.279,0.421,-36.255,2.197,-262.817
0.164,1.216,0.456,-46.509,4.761,-270.569
0.184,1.151,0.486,-55.359,7.141,-278.442
0.185,1.039,0.512,-61.646,8.179,-285.767
0.197,0.951,0.526,-67.078,11.475,-290.405
0.222,0.882,0.539,-71.655,16.968,-292.419
0.238,0.796,0.521,-70.984,20.691,-294.250
0.246,0.710,0.505,-67.993,21.790,-296.326
0.265,0.633,0.501,-63.904,21.606,-297.791
0.267,0.536,0.500,-59.326,21.362,-298.828
0.280,0.459,0.478,-57.739,23.682,-297.119

-0.948,1.239,0.658,99.548,84.351,387.085
-0.961,1.543,0.583,105.164,92.285,377.991
-0.897,1.858,0.514,108.093,95.276,362.183
-0.789,2.078,0.471,107.544,92.834,335.144
-0.662,2.203,0.481,105.896,86.670,298.523
-0.525,2.242,0.471,107.178,80.505,257.690
-0.546,2.192,0.411,109.497,73.486,217.834
-0.535,2.111,0.312,105.591,68.054,188.293
-0.453,2.065,0.270,90.637,70.129,166.687
-0.378,2.100,0.258,76.477,69.214,146.851
-0.326,2.133,0.252,69.092,68.726,123.230
-0.314,2.151,0.201,68.237,66.162,99.670
-0.285,2.167,0.141,66.406,57.739,78.857
-0.279,2.164,0.078,60.425,45.288,58.655
-0.255,2.112,0.062,50.110,32.166,37.476
-0.230,2.035,0.073,40.771,25.452,16.235
-0.217,1.961,0.066,31.433,20.874,-6.226
-0.230,1.838,0.067,25.391,15.442,-29.114
-0.250,1.704,0.068,21.301,8.911,-48.523
-0.266,1.570,0.063,18.372,2.197,-63.477
-0.286,1.453,0.064,14.038,-3.479,-73.181
-0.275,1.369,0.079,7.935,-8.240,-78.674
-0.277,1.312,0.116,0.000,-12.024,-82.214
-0.272,1.272,0.131,-5.920,-14.465,-84.351
-0.248,1.256,0.177,-11.841,-17.395,-86.365
-0.221,1.246,0.220,-16.602,-20.203,-89.294
-0.192,1.235,0.260,-19.409,-22.095,-93.628
-0.181,1.208,0.275,-21.362,-21.667,-99.182
-0.177,1.195,0.292,-23.437,-20.447,-104.553
-0.166,1.175,0.302,-25.757,-20.142,-108.459
-0.155,1.156,0.315,-28.076,-21.118,-111.206
-0.137,1.149,0.332,-30.396,-21.851,-112.427
-0.119,1.157,0.345,-33.142,-22.034,-112.854
-0.104,1.170,0.353,-36.316,-21.179,-113.220
-0.083,1.203,0.361,-39.978,-19.470,-113.586
-0.060,1.241,0.362,-42.908,-18.127,-115.112
-0.035,1.289,0.366,-44.617,-17.578,-118.530
-0.015,1.325,0.370,-45.471,-16.235,-124.329
-0.007,1.356,0.365,-46.021,-15.076,-131.714
0.010,1.394,0.351,-47.119,-13.489,-139.648
0.033,1.451,0.349,-49.500,-11.169,-148.926
0.048,1.497,0.327,-51.392,-10.071,-160.339
0.051,1.518,0.307,-52.124,-10.681,-173.889
0.071,1.532,0.315,-51.941,-13.428,-188.110
0.100,1.528,0.323,-49.316,-17.517,-203.674
0.125,1.504,0.336,-42.542,-21.667,-221.741
0.151,1.470,0.361,-33.081,-25.330,-242.310
0.173,1.427,0.392,-22.766,-27.100,-264.465
0.165,1.355,0.399,-12.756,-25.818,-286.865
0.148,1.269,0.403,-5.859,-22.644,-307.434
0.129,1.180,0.409,-3.601,-18.311,-324.707
0.115,1.086,0.413,-5.615,-13.855,-338.013
0.090,0.947,0.425,-12.146,-9.460,-347.412
0.056,0.816,0.430,-23.987,-4.761,-351.868
0.060,0.719,0.456,-38.940,2.930,-350.647
0.067,0.552,0.449,-50.720,9.460,-347.168
0.056,0.418,0.428,-61.462,14.771,-340.332
0.078,0.286,0.418,-71.350,19.592,-330.322
0.120,0.202,0.401,-76.111,21.729,-318.359
0.162,0.093,0.367,-75.806,22.522,-306.885

-0.539,1.568,0.765,141.479,55.847,317.261
-0.491,1.837,0.671,137.024,63.599,305.237
-0.390,2.090,0.585,130.615,69.763,285.767
-0.289,2.270,0.511,125.244,69.702,257.812
-0.093,2.446,0.474,120.789,66.711,223.328
-0.328,2.394,0.294,122.559,49.500,196.167
-0.219,2.389,0.175,106.628,46.753,174.805
-0.075,2.404,0.130,82.336,51.086,156.067
-0.019,2.398,0.092,65.491,45.532,134.033
0.045,2.351,0.085,55.298,43.213,104.187
0.054,2.348,0.079,53.833,37.964,71.289
0.037,2.266,-0.001,61.096,30.945,39.917
-0.015,2.149,-0.095,63.416,23.193,18.738
-0.019,2.069,-0.121,52.917,9.460,7.202
-0.001,1.995,-0.089,36.499,-2.747,-0.732
0.013,1.932,-0.031,21.362,-5.554,-11.169
0.022,1.877,-0.007,11.108,-5.066,-24.902
0.013,1.810,-0.013,5.371,-7.080,-39.490
-0.004,1.737,-0.005,0.732,-12.268,-53.101
0.009,1.677,0.005,-4.944,-18.311,-64.209
0.014,1.596,0.027,-11.597,-23.376,-74.341
0.021,1.508,0.068,-19.165,-27.344,-82.947
0.034,1.439,0.119,-26.550,-30.090,-88.928
0.052,1.371,0.166,-33.264,-31.799,-93.079
0.070,1.314,0.216,-38.696,-33.936,-96.741
0.079,1.273,0.263,-43.457,-35.095,-99.854
0.102,1.254,0.296,-46.997,-34.119,-102.539
0.125,1.245,0.324,-49.316,-32.593,-106.384
0.144,1.248,0.360,-49.194,-31.494,-112.122
0.162,1.262,0.381,-46.692,-30.457,-119.507
0.170,1.275,0.369,-42.480,-28.564,-128.174
0.164,1.278,0.340,-39.917,-26.001,-137.268
0.155,1.253,0.301,-42.114,-24.780,-144.836
0.153,1.220,0.275,-49.988,-24.597,-148.987
0.169,1.179,0.278,-62.805,-23.254,-149.475
0.191,1.150,0.296,-75.562,-21.667,-148.071
0.215,1.126,0.318,-84.167,-20.691,-147.400
0.248,1.123,0.343,-86.914,-20.569,-149.231
0.271,1.111,0.349,-84.778,-20.752,-154.480
0.286,1.098,0.347,-79.712,-20.508,-161.926
0.285,1.091,0.344,-72.754,-19.409,-171.265
0.298,1.100,0.343,-64.819,-17.944,-181.335
0.303,1.109,0.331,-56.152,-16.357,-193.420
0.296,1.092,0.299,-47.974,-14.709,-207.031
0.280,1.061,0.262,-43.274,-13.428,-220.337
0.271,0.982,0.225,-43.030,-12.817,-231.750
0.248,0.902,0.226,-48.828,-12.634,-239.258
0.245,0.816,0.249,-58.105,-11.047,-242.798
0.252,0.737,0.252,-66.833,-7.690,-243.896
0.259,0.675,0.266,-75.012,-3.479,-243.225
0.257,0.596,0.265,-80.688,-1.709,-241.577
0.263,0.527,0.259,-82.397,-1.892,-238.892
0.282,0.462,0.242,-81.665,-3.479,-235.413
0.307,0.396,0.227,-80.139,-5.737,-231.995
0.342,0.326,0.233,-79.224,-7.996,-229.309
0.371,0.225,0.235,-78.186,-9.216,-227.234
0.410,0.114,0.228,-75.867,-9.583,-225.891
0.461,-0.005,0.226,-72.815,-9.033,-225.708
0.493,-0.146,0.185,-65.918,-7.263,-224.915
0.509,-0.295,0.148,-56.824,-4.822,-220.093

-0.642,1.750,0.266,145.325,83.496,349.609
-0.573,1.909,0.245,150.391,77.942,317.444
-0.503,2.028,0.209,153.625,72.998,280.579
-0.448,2.108,0.173,152.832,69.519,247.192
-0.400,2.171,0.119,146.606,67.993,219.727
-0.336,2.239,0.074,136.536,66.772,197.571
-0.253,2.316,0.050,123.840,62.439,177.979
-0.167,2.364,0.036,110.596,55.847,158.752
-0.075,2.431,0.070,98.450,46.936,139.282
-0.147,2.374,-0.018,85.938,32.715,126.282
-0.033,2.355,-0.003,62.195,32.043,111.267
0.077,2.355,0.032,40.100,33.081,94.666
0.129,2.346,0.070,26.245,32.898,65.247
0.103,2.271,0.053,24.719,31.067,29.785
0.071,2.153,-0.018,27.893,27.832,-0.854
0.027,2.022,-0.095,26.245,21.423,-22.522
-0.009,1.902,-0.131,15.564,11.108,-35.583
-0.011,1.778,-0.128,0.366,3.662,-44.006
-0.005,1.673,-0.096,-14.465,1.465,-53.162
-0.001,1.575,-0.069,-24.292,0.427,-64.148
-0.005,1.491,-0.048,-28.015,-2.258,-75.684
-0.003,1.422,-0.038,-28.687,-5.920,-86.060
-0.009,1.365,-0.030,-29.236,-9.338,-94.849
-0.002,1.316,-0.011,-31.006,-11.658,-102.234
0.010,1.290,0.019,-33.813,-13.611,-108.582
0.028,1.280,0.042,-36.499,-14.832,-113.586
0.050,1.281,0.068,-41.443,-14.343,-117.310
0.060,1.276,0.083,-48.889,-13.794,-120.422
0.069,1.265,0.101,-56.763,-13.123,-122.620
0.096,1.261,0.117,-63.660,-13.489,-123.779
0.130,1.276,0.137,-68.298,-14.526,-125.366
0.149,1.279,0.150,-68.970,-15.747,-128.967
0.178,1.299,0.156,-66.406,-17.578,-134.583
0.203,1.318,0.166,-61.768,-19.592,-143.066
0.213,1.324,0.161,-54.321,-22.095,-154.358
0.218,1.314,0.130,-46.936,-23.804,-167.969
0.202,1.309,0.120,-42.603,-25.574,-182.312
0.197,1.283,0.112,-42.725,-27.405,-195.557
0.190,1.258,0.115,-47.424,-27.771,-206.848
0.185,1.210,0.138,-55.786,-27.954,-216.980
0.190,1.143,0.163,-63.843,-28.381,-225.342
0.193,1.081,0.199,-70.984,-29.114,-233.337
0.200,1.017,0.225,-74.890,-30.273,-241.333
0.199,0.949,0.233,-74.951,-31.067,-249.268
0.195,0.874,0.234,-73.120,-31.494,-257.080
0.193,0.798,0.229,-70.007,-32.410,-264.404
0.193,0.720,0.218,-65.063,-33.142,-270.447
0.192,0.650,0.201,-60.547,-33.936,-275.085
0.198,0.570,0.182,-57.068,-35.095,-278.870
0.210,0.456,0.170,-54.199,-36.987,-280.457
0.238,0.354,0.165,-54.138,-37.048,-279.297
0.279,0.271,0.176,-55.542,-35.889,-276.062
0.311,0.175,0.156,-53.833,-33.875,-271.729
0.333,0.081,0.133,-52.185,-31.677,-266.052
0.371,-0.011,0.084,-52.185,-30.090,-258.667
0.431,-0.108,0.040,-53.650,-30.762,-247.742
0.476,-0.234,0.030,-57.861,-33.569,-235.596
0.527,-0.378,0.034,-64.209,-36.255,-222.961
0.589,-0.521,0.063,-68.176,-37.537,-208.008
0.640,-0.662,0.104,-67.871,-36.682,-192.078

-0.866,1.768,0.280,152.466,123.901,357.849
-0.818,2.010,0.155,153.076,119.263,333.008
-0.747,2.162,0.113,151.184,107.056,302.734
-0.661,2.233,0.112,147.583,91.431,272.095
-0.564,2.276,0.111,144.409,80.200,243.286
-0.466,2.314,0.075,139.343,74.219,216.064
-0.379,2.328,0.045,130.798,70.313,189.880
-0.323,2.313,0.023,118.652,64.697,165.344
-0.269,2.294,0.002,103.394,58.838,143.616
-0.229,2.270,-0.012,87.036,53.162,123.718
-0.200,2.231,-0.029,72.021,48.157,104.980
-0.177,2.194,-0.048,58.105,42.847,86.792
-0.159,2.170,-0.066,46.570,37.109,69.031
-0.145,2.147,-0.091,37.415,30.823,50.903
-0.123,2.117,-0.107,29.236,23.254,31.677
-0.109,2.065,-0.110,21.240,14.771,10.864
-0.107,1.983,-0.106,13.916,7.141,-10.315
-0.120,1.882,-0.097,7.385,0.488,-31.738
-0.137,1.781,-0.102,1.526,-4.333,-50.598
-0.139,1.687,-0.096,-4.822,-10.010,-66.406
-0.132,1.593,-0.070,-12.268,-16.174,-79.895
-0.116,1.514,-0.044,-19.470,-21.729,-91.187
-0.094,1.448,-0.009,-27.222,-25.818,-100.525
-0.079,1.386,0.020,-34.485,-28.564,-109.253
-0.063,1.328,0.053,-39.978,-30.151,-117.065
-0.050,1.286,0.081,-44.495,-31.921,-123.840
-0.040,1.247,0.108,-47.546,-33.447,-129.944
-0.023,1.226,0.135,-48.828,-34.973,-135.254
-0.009,1.214,0.150,-48.462,-36.133,-139.771
0.006,1.213,0.156,-46.936,-36.987,-144.043
0.033,1.229,0.156,-45.288,-37.720,-148.499
0.052,1.237,0.137,-43.152,-38.635,-154.846
0.076,1.242,0.116,-42.480,-40.710,-162.476
0.072,1.211,0.116,-46.143,-42.969,-169.373
0.106,1.177,0.146,-53.772,-44.006,-175.964
0.128,1.134,0.194,-60.974,-44.434,-181.824
0.147,1.086,0.233,-65.369,-43.335,-187.073
0.168,1.044,0.252,-66.895,-41.077,-191.895
0.186,1.008,0.248,-65.491,-39.124,-196.045
0.199,0.981,0.244,-62.256,-37.781,-200.195
0.214,0.953,0.233,-58.350,-37.109,-204.651
0.227,0.927,0.218,-53.772,-37.109,-209.656
0.244,0.898,0.206,-50.110,-37.415,-214.478
0.260,0.865,0.192,-47.546,-37.170,-219.055
0.271,0.840,0.191,-46.448,-35.522,-223.083
0.285,0.813,0.189,-46.509,-33.203,-226.440
0.302,0.783,0.188,-48.706,-30.029,-229.736
0.312,0.747,0.177,-53.223,-25.818,-232.117
0.318,0.701,0.167,-60.608,-21.729,-232.666
0.337,0.653,0.161,-69.458,-18.555,-230.957
0.371,0.605,0.163,-77.271,-16.541,-228.149
0.406,0.542,0.176,-82.092,-15.930,-226.135
0.446,0.478,0.196,-82.275,-16.113,-225.586
0.480,0.407,0.199,-77.576,-15.198,-227.112
0.501,0.329,0.175,-68.481,-13.855,-229.675
0.517,0.256,0.139,-56.946,-12.695,-232.178
0.533,0.189,0.088,-44.861,-11.353,-234.009
0.530,0.129,0.029,-34.546,-10.742,-234.619
0.530,0.042,-0.040,-27.893,-10.803,-231.873
0.539,-0.021,-0.091,-26.611,-12.024,-224.792

-1.144,1.503,0.320,152.100,131.287,372.070
-1.116,1.774,0.240,154.236,129.761,353.210
-1.038,2.003,0.166,158.691,119.385,326.477
-0.923,2.175,0.155,161.804,103.027,293.152
-0.776,2.267,0.137,164.307,84.290,257.446
-0.651,2.298,0.157,162.537,66.589,221.252
-0.537,2.306,0.169,152.771,54.932,187.927
-0.446,2.269,0.167,136.047,48.706,159.729
-0.380,2.234,0.163,117.249,44.495,137.207
-0.322,2.229,0.164,97.351,41.687,118.164
-0.268,2.231,0.156,80.261,38.940,99.854
-0.218,2.244,0.147,67.261,35.217,79.895
-0.192,2.230,0.132,58.350,29.663,57.739
-0.173,2.202,0.119,51.392,23.987,34.729
-0.177,2.144,0.099,45.166,17.944,11.658
-0.180,2.067,0.065,38.086,12.817,-9.399
-0.187,1.970,0.048,29.114,8.606,-29.358
-0.199,1.860,0.048,19.165,4.272,-47.302
-0.212,1.744,0.030,9.888,0.854,-63.416
-0.228,1.622,0.020,1.465,-2.991,-77.515
-0.238,1.495,0.008,-6.775,-7.812,-88.806
-0.246,1.371,0.017,-15.991,-12.573,-96.619
-0.236,1.261,0.046,-25.513,-16.663,-100.586
-0.223,1.180,0.070,-32.776,-19.775,-102.417
-0.198,1.118,0.099,-37.720,-21.423,-102.966
-0.179,1.081,0.128,-40.649,-23.132,-102.844
-0.157,1.066,0.166,-41.504,-24.780,-102.844
-0.127,1.069,0.197,-39.917,-25.574,-103.394
-0.100,1.080,0.218,-36.743,-25.818,-105.652
-0.082,1.094,0.234,-33.630,-25.818,-109.314
-0.057,1.112,0.247,-31.982,-25.452,-113.770
-0.043,1.128,0.247,-31.006,-24.414,-118.896
-0.028,1.147,0.234,-30.457,-23.376,-123.657
-0.007,1.165,0.229,-31.616,-22.766,-127.319
0.020,1.180,0.236,-34.302,-22.339,-130.920
0.051,1.193,0.248,-37.231,-21.729,-135.193
0.080,1.198,0.263,-38.940,-20.630,-140.442
0.116,1.214,0.267,-38.635,-19.592,-146.606
0.125,1.200,0.255,-35.522,-19.714,-153.748
0.136,1.193,0.233,-30.823,-20.386,-161.987
0.147,1.192,0.225,-28.625,-20.996,-170.776
0.155,1.198,0.221,-29.663,-21.118,-179.077
0.169,1.210,0.237,-33.936,-19.653,-186.401
0.199,1.221,0.255,-40.283,-16.785,-194.519
0.220,1.207,0.255,-46.631,-12.878,-203.857
0.226,1.159,0.260,-51.758,-9.949,-215.637
0.239,1.095,0.271,-56.091,-7.935,-227.356
0.251,1.016,0.272,-58.044,-6.409,-237.976
0.259,0.934,0.266,-57.312,-5.676,-247.070
0.273,0.863,0.253,-55.054,-4.944,-254.211
0.289,0.810,0.240,-51.147,-4.578,-259.460
0.299,0.760,0.238,-46.387,-4.822,-263.611
0.329,0.718,0.238,-42.358,-4.333,-267.517
0.338,0.674,0.218,-39.490,-2.563,-272.339
0.332,0.614,0.198,-38.391,-0.427,-277.649
0.329,0.541,0.167,-38.330,0.610,-281.616
0.330,0.465,0.128,-38.574,0.793,-281.616
0.332,0.398,0.105,-40.833,-0.061,-278.137
0.348,0.296,0.080,-45.166,-1.892,-271.729
0.370,0.224,0.072,-50.354,-3.052,-261.292

-0.969,1.552,0.346,129.272,96.680,361.450
-0.876,1.762,0.364,122.986,85.999,343.994
-0.747,1.935,0.432,116.455,70.496,321.228
-0.607,2.054,0.475,114.624,59.814,295.227
-0.485,2.146,0.482,114.502,54.688,267.029
-0.413,2.205,0.475,112.915,51.331,237.549
-0.308,2.300,0.500,108.032,47.913,210.449
-0.362,2.293,0.381,100.952,37.292,195.618
-0.246,2.353,0.338,80.017,37.354,182.739
-0.118,2.435,0.364,55.969,35.400,167.664
-0.017,2.486,0.407,41.016,35.156,138.245
0.031,2.473,0.387,39.673,39.063,97.351
0.008,2.416,0.293,48.157,41.748,54.504
-0.049,2.320,0.167,54.382,38.635,18.127
-0.118,2.223,0.053,51.331,29.480,-6.409
-0.135,2.138,-0.004,37.354,17.517,-23.071
-0.126,2.054,-0.008,19.104,8.911,-37.720
-0.123,1.953,0.008,1.953,4.028,-53.406
-0.118,1.860,0.031,-10.010,0.427,-71.045
-0.118,1.751,0.036,-15.991,-4.333,-89.050
-0.129,1.639,0.037,-18.677,-10.071,-105.713
-0.148,1.519,0.039,-21.790,-16.174,-120.300
-0.175,1.401,0.048,-27.588,-21.118,-130.554
-0.169,1.299,0.084,-36.194,-24.414,-136.169
-0.160,1.196,0.131,-45.532,-26.428,-138.611
-0.128,1.139,0.174,-53.406,-27.161,-138.855
-0.099,1.091,0.213,-56.763,-28.137,-138.489
-0.074,1.057,0.248,-56.824,-29.358,-139.160
-0.045,1.042,0.271,-55.359,-29.907,-139.709
0.002,1.050,0.296,-53.162,-30.823,-139.954
0.034,1.058,0.320,-49.011,-32.227,-141.907
0.075,1.078,0.339,-44.312,-33.020,-144.958
0.115,1.107,0.355,-39.490,-32.227,-149.170
0.139,1.115,0.346,-34.241,-31.067,-155.273
0.159,1.105,0.318,-30.151,-30.945,-162.354
0.178,1.086,0.309,-30.090,-31.738,-168.335
0.200,1.071,0.329,-34.180,-32.043,-172.241
0.229,1.059,0.340,-39.246,-29.907,-174.561
0.245,1.047,0.346,-43.701,-27.161,-176.208
0.274,1.050,0.354,-47.424,-24.475,-178.528
0.301,1.053,0.360,-49.622,-21.912,-182.190
0.322,1.054,0.370,-49.255,-19.897,-188.354
0.347,1.057,0.380,-47.180,-18.494,-196.899
0.352,1.041,0.380,-43.091,-17.029,-208.557
0.349,1.002,0.378,-37.964,-15.442,-221.313
0.357,0.960,0.368,-33.325,-13.184,-234.558
0.367,0.926,0.367,-30.090,-9.827,-247.620
0.364,0.867,0.330,-27.527,-5.615,-260.376
0.354,0.802,0.306,-27.039,-1.465,-272.400
0.348,0.714,0.288,-26.489,0.977,-282.227
0.350,0.610,0.275,-25.269,1.343,-289.490
0.329,0.494,0.263,-23.071,1.282,-294.067
0.345,0.423,0.246,-20.691,2.686,-294.250
0.342,0.326,0.222,-15.930,3.723,-293.152
0.329,0.262,0.155,-10.803,3.357,-290.344
0.357,0.220,0.096,-7.019,2.869,-285.645
0.379,0.161,0.074,-4.028,-1.648,-282.837
0.415,0.085,0.092,-0.549,-9.766,-281.921
0.460,-0.035,0.124,8.301,-17.578,-282.349
0.487,-0.205,0.109,23.499,-21.729,-284.912

-1.082,1.166,0.738,18.677,41.504,507.141
-1.088,1.496,0.704,29.602,65.613,482.605
-1.103,1.723,0.626,46.265,80.505,446.289
-1.102,1.917,0.555,62.561,86.121,405.518
-1.078,2.048,0.488,76.050,83.435,368.408
-1.024,2.144,0.461,80.627,76.782,336.792
-0.913,2.271,0.475,76.782,72.449,311.279
-0.928,2.287,0.382,70.496,63.965,295.654
-0.761,2.384,0.368,52.734,63.293,283.447
-0.595,2.505,0.401,35.278,60.852,264.221
-0.479,2.581,0.439,31.250,60.303,228.333
-0.427,2.590,0.394,41.199,65.308,179.687
-0.442,2.560,0.236,57.007,68.237,132.385
-0.466,2.527,0.072,64.819,63.416,94.116
-0.500,2.457,-0.034,61.218,49.622,66.895
-0.477,2.399,-0.053,46.814,33.875,45.471
-0.422,2.334,-0.034,30.457,22.705,23.254
-0.392,2.233,-0.023,19.226,15.747,-3.479
-0.387,2.085,-0.026,13.733,9.705,-33.447
-0.393,1.927,-0.030,12.024,1.099,-62.134
-0.385,1.777,-0.030,11.841,-7.874,-85.632
-0.375,1.649,-0.011,10.620,-17.639,-104.126
-0.363,1.535,0.038,7.141,-25.879,-119.324
-0.353,1.435,0.090,2.441,-31.494,-131.226
-0.349,1.348,0.140,-1.770,-34.668,-140.503
-0.346,1.275,0.189,-5.737,-37.170,-147.156
-0.319,1.217,0.223,-10.498,-39.185,-150.940
-0.287,1.175,0.260,-16.724,-41.199,-152.771
-0.246,1.152,0.305,-22.217,-42.297,-154.358
-0.203,1.144,0.341,-25.696,-42.358,-156.860
-0.163,1.132,0.367,-26.428,-41.931,-161.377
-0.130,1.120,0.393,-25.879,-41.199,-167.603
-0.099,1.113,0.396,-25.146,-39.429,-174.805
-0.084,1.098,0.403,-25.635,-36.682,-181.824
-0.064,1.082,0.416,-27.771,-34.241,-187.439
-0.043,1.068,0.407,-30.090,-31.738,-191.345
-0.020,1.058,0.389,-33.630,-29.541,-194.458
0.000,1.041,0.380,-38.391,-28.198,-196.960
0.029,1.014,0.386,-43.396,-28.015,-199.707
0.061,0.984,0.407,-46.570,-28.076,-202.820
0.098,0.970,0.445,-46.875,-27.039,-206.848
0.132,0.965,0.461,-44.617,-23.132,-212.219
0.148,0.946,0.436,-41.016,-17.639,-219.116
0.148,0.907,0.395,-37.720,-13.611,-226.562
0.144,0.853,0.353,-36.133,-11.414,-231.995
0.153,0.794,0.324,-36.499,-10.559,-234.131
0.174,0.745,0.307,-38.513,-10.498,-233.337
0.201,0.702,0.303,-41.077,-9.460,-230.347
0.233,0.667,0.298,-43.335,-8.484,-227.112
0.265,0.642,0.304,-44.556,-6.958,-224.121
0.306,0.618,0.302,-43.884,-5.554,-222.168
0.349,0.582,0.290,-40.955,-4.517,-222.229
0.352,0.533,0.279,-36.682,-4.089,-223.816
0.401,0.498,0.281,-31.738,-2.747,-224.548
0.427,0.459,0.269,-25.635,-1.221,-226.257
0.445,0.398,0.251,-19.348,0.488,-228.516
0.465,0.342,0.233,-14.099,1.892,-229.370
0.481,0.276,0.214,-10.620,3.357,-227.722
0.494,0.210,0.187,-9.399,5.859,-223.755
0.516,0.157,0.166,-10.742,9.216,-217.163

-1.071,-1.015,0.452,87.952,36.804,392.639
-1.341,-0.583,0.486,92.407,47.363,444.946
-1.534,-0.013,0.619,98.999,50.110,491.943
-1.641,0.551,0.727,101.440,54.993,533.142
-1.727,1.058,0.740,91.797,74.524,562.866
-1.765,1.522,0.685,69.641,107.788,579.407
-1.745,1.948,0.580,45.288,142.517,584.778
-1.659,2.338,0.439,31.189,169.373,581.543
-1.469,2.745,0.268,26.672,183.044,567.932
-1.170,3.113,0.083,28.076,184.998,535.339
-0.859,3.358,-0.089,30.701,176.147,486.328
-0.648,3.532,-0.245,33.203,158.325,422.546
-0.418,3.557,-0.350,34.180,132.935,338.074
-0.346,3.313,-0.291,33.081,100.891,244.202
-0.384,2.974,-0.227,31.616,75.073,166.504
-0.431,2.718,-0.176,25.574,67.383,108.154
-0.463,2.466,-0.150,24.231,64.575,62.012
-0.484,2.240,-0.174,27.405,61.096,28.625
-0.504,2.086,-0.250,28.259,54.504,9.705
-0.500,1.997,-0.330,27.710,42.969,0.793
-0.457,1.961,-0.399,24.536,28.320,-3.784
-0.397,1.941,-0.438,16.724,15.747,-11.780
-0.355,1.898,-0.456,6.104,5.310,-25.391
-0.332,1.832,-0.453,-3.662,-4.089,-41.870
-0.310,1.753,-0.430,-12.390,-15.381,-58.838
-0.288,1.664,-0.393,-19.226,-27.588,-74.402
-0.275,1.580,-0.337,-23.804,-39.978,-89.233
-0.257,1.503,-0.265,-26.672,-51.147,-103.333
-0.245,1.435,-0.192,-28.381,-59.814,-116.638
-0.239,1.392,-0.115,-30.212,-66.040,-128.052
-0.221,1.386,-0.060,-32.349,-69.580,-137.390
-0.181,1.416,-0.027,-36.133,-70.190,-146.301
-0.133,1.470,-0.003,-41.748,-69.397,-156.433
-0.090,1.523,0.009,-48.462,-69.031,-169.006
-0.063,1.543,0.036,-53.711,-70.801,-185.547
-0.060,1.540,0.057,-55.542,-74.829,-203.369
-0.052,1.510,0.070,-54.321,-79.956,-220.215
-0.052,1.437,0.087,-50.842,-86.121,-234.924
-0.060,1.338,0.111,-46.021,-92.651,-246.887
-0.053,1.269,0.143,-41.077,-97.229,-254.517
-0.017,1.207,0.180,-36.865,-99.915,-258.118
0.010,1.164,0.238,-32.837,-100.403,-260.498
0.062,1.210,0.299,-30.334,-95.642,-264.404
0.127,1.265,0.330,-27.344,-88.623,-271.423
0.171,1.304,0.305,-24.048,-79.773,-283.325
0.179,1.299,0.259,-23.987,-70.374,-300.659
0.160,1.258,0.229,-24.231,-64.575,-319.702
0.155,1.232,0.224,-23.621,-63.782,-337.280
0.147,1.171,0.266,-22.400,-64.453,-353.455
0.122,1.066,0.283,-19.287,-62.744,-368.225
0.083,0.940,0.286,-13.123,-58.777,-380.066
0.083,0.858,0.293,-3.540,-55.969,-387.146
0.115,0.810,0.274,10.559,-55.725,-390.747
0.128,0.765,0.251,26.794,-58.167,-394.653
0.110,0.662,0.198,41.931,-59.204,-399.597
0.068,0.484,0.120,51.392,-57.190,-403.809
0.041,0.275,0.019,55.054,-53.650,-402.222
0.014,0.041,-0.044,52.856,-52.490,-392.456
0.003,-0.233,-0.047,44.189,-52.795,-375.916
0.015,-0.510,0.013,30.823,-51.270,-351.807

-1.328,1.296,0.600,-14.282,-12.695,656.616
-1.258,1.790,0.544,-38.452,14.771,653.320
-1.103,2.336,0.409,-65.674,50.903,630.676
-0.796,2.853,0.291,-84.839,81.726,589.539
-0.526,3.299,0.157,-80.933,98.511,525.574
-0.305,3.498,0.025,-54.565,87.830,432.678
-0.211,3.406,-0.029,-17.639,52.979,325.317
-0.218,3.078,0.023,9.827,16.907,223.938
-0.328,2.682,0.121,19.714,1.099,138.062
-0.475,2.290,0.179,17.395,5.005,74.219
-0.572,1.954,0.192,12.146,15.015,29.419
-0.627,1.701,0.180,9.766,23.621,-0.183
-0.648,1.533,0.158,9.216,29.053,-17.944
-0.641,1.430,0.127,9.033,31.616,-27.039
-0.593,1.376,0.091,8.667,32.043,-30.334
-0.529,1.364,0.046,6.653,30.701,-31.372
-0.462,1.376,0.005,3.235,26.917,-32.959
-0.391,1.396,-0.020,0.366,21.179,-37.109
-0.332,1.392,-0.028,-0.854,12.695,-43.823
-0.286,1.352,-0.021,-1.038,3.113,-51.392
-0.248,1.298,-0.001,-2.075,-4.883,-59.204
-0.215,1.244,0.021,-3.784,-10.498,-66.711
-0.197,1.186,0.052,-5.859,-14.832,-73.364
-0.190,1.131,0.093,-7.080,-17.517,-78.674
-0.182,1.079,0.128,-8.484,-19.348,-81.909
-0.174,1.044,0.157,-9.949,-19.287,-83.008
-0.160,1.022,0.184,-11.536,-17.944,-82.642
-0.144,1.019,0.210,-13.184,-15.625,-81.543
-0.105,1.053,0.236,-15.198,-12.573,-80.627
-0.071,1.102,0.257,-16.541,-9.521,-80.811
-0.033,1.158,0.258,-17.151,-6.287,-83.069
0.011,1.224,0.253,-18.005,-2.869,-87.463
0.048,1.280,0.239,-19.775,0.122,-93.689
0.075,1.314,0.218,-21.179,1.526,-101.501
0.084,1.335,0.210,-21.240,0.305,-110.840
0.101,1.329,0.219,-20.447,-3.357,-120.300
0.099,1.287,0.226,-18.921,-8.728,-129.272
0.072,1.235,0.236,-16.113,-12.878,-138.245
0.077,1.203,0.254,-15.808,-13.916,-144.897
0.103,1.185,0.259,-19.592,-10.498,-148.560
0.124,1.179,0.248,-26.489,-3.418,-152.527
0.151,1.201,0.238,-34.973,4.272,-157.104
0.202,1.256,0.226,-42.297,10.803,-162.170
0.265,1.307,0.217,-48.950,15.076,-169.067
0.302,1.340,0.221,-54.077,18.555,-180.603
0.316,1.344,0.225,-55.969,21.729,-196.838
0.314,1.315,0.218,-53.406,23.926,-213.684
0.297,1.252,0.203,-47.424,24.048,-228.943
0.290,1.197,0.189,-39.490,21.973,-241.028
0.287,1.123,0.171,-30.762,18.372,-249.329
0.280,1.051,0.148,-23.315,15.381,-254.822
0.283,0.980,0.124,-18.677,13.184,-258.240
0.322,0.945,0.095,-15.503,10.742,-257.996
0.355,0.902,0.063,-14.709,9.033,-256.653
0.377,0.881,0.056,-18.982,8.789,-257.263
0.411,0.859,0.062,-24.353,9.155,-258.362
0.453,0.834,0.065,-29.236,9.216,-260.193
0.489,0.822,0.066,-32.898,7.996,-263.428
0.507,0.802,0.067,-33.813,5.005,-268.616
0.514,0.780,0.086,-32.776,1.282,-275.269

-0.006,1.923,0.628,45.959,35.095,442.749
-0.125,2.171,0.774,33.813,26.855,427.612
-0.212,2.232,0.582,25.635,23.926,421.265
0.064,2.214,0.396,-1.404,56.763,395.142
-0.081,2.313,0.303,-39.368,100.586,393.860
-0.285,2.455,-0.063,-75.073,140.503,362.183
-0.158,2.573,-0.180,-99.731,158.386,286.133
-0.032,2.563,-0.212,-92.590,149.170,232.361
0.015,2.582,-0.272,-76.172,128.235,196.777
0.077,2.634,-0.311,-59.387,103.394,168.762
0.155,2.672,-0.333,-40.344,75.134,133.545
0.165,2.621,-0.355,-16.602,45.959,94.360
0.143,2.522,-0.376,2.625,20.813,54.382
0.113,2.361,-0.380,17.456,4.578,11.292
0.087,2.139,-0.376,28.809,-3.967,-29.053
-0.008,1.905,-0.395,33.203,-11.108,-60.852
-0.065,1.691,-0.401,29.297,-21.606,-78.552
-0.071,1.532,-0.371,20.203,-31.616,-84.595
-0.063,1.432,-0.327,7.751,-38.574,-84.961
-0.049,1.374,-0.253,-4.822,-43.823,-83.984
-0.014,1.303,-0.185,-15.930,-45.532,-85.876
0.001,1.239,-0.126,-26.611,-44.434,-88.745
0.021,1.207,-0.071,-35.034,-44.495,-89.355
0.062,1.187,-0.025,-39.185,-46.387,-89.417
0.099,1.195,0.014,-40.588,-48.767,-90.271
0.137,1.219,0.054,-41.321,-48.950,-93.506
0.176,1.243,0.080,-42.908,-46.814,-99.609
0.206,1.257,0.097,-44.189,-45.044,-107.483
0.227,1.253,0.105,-43.091,-44.495,-116.760
0.245,1.228,0.104,-40.771,-45.105,-125.977
0.258,1.196,0.091,-39.124,-45.471,-134.521
0.268,1.169,0.085,-38.391,-45.471,-142.029
0.269,1.147,0.092,-38.452,-45.776,-147.766
0.285,1.133,0.112,-38.818,-46.082,-151.978
0.310,1.136,0.134,-38.269,-45.288,-155.518
0.336,1.151,0.157,-37.231,-44.800,-159.302
0.362,1.175,0.171,-36.438,-43.701,-163.940
0.394,1.223,0.188,-37.720,-41.260,-169.617
0.430,1.268,0.204,-40.955,-37.415,-177.856
0.459,1.279,0.207,-44.678,-32.776,-189.697
0.473,1.260,0.209,-47.791,-27.649,-203.918
0.464,1.211,0.199,-48.645,-24.475,-219.116
0.457,1.166,0.177,-46.265,-24.170,-233.643
0.449,1.100,0.148,-40.588,-26.489,-247.559
0.414,1.032,0.120,-33.081,-30.212,-260.803
0.383,0.966,0.103,-25.574,-34.607,-272.278
0.358,0.917,0.084,-18.616,-39.124,-281.433
0.352,0.844,0.079,-14.771,-42.358,-290.344
0.328,0.791,0.089,-11.841,-44.312,-296.997
0.324,0.738,0.101,-10.620,-45.654,-302.124
0.324,0.670,0.090,-9.399,-45.471,-305.969
0.305,0.597,0.061,-9.155,-44.373,-309.143
0.291,0.505,0.055,-10.315,-44.189,-311.646
0.276,0.406,0.048,-10.132,-44.922,-311.401
0.276,0.292,0.051,-8.850,-46.753,-308.411
0.264,0.186,0.069,-6.104,-48.340,-302.673
0.268,0.060,0.090,-2.136,-50.110,-295.044
0.277,-0.070,0.101,0.916,-49.500,-285.034
0.296,-0.203,0.102,0.610,-46.265,-272.583
0.331,-0.348,0.105,-2.380,-43.091,-258.484

-1.595,1.159,0.902,52.368,76.782,640.198
-1.591,1.656,0.812,42.603,116.943,669.922
-1.408,2.021,0.728,18.738,158.752,692.871
-1.472,2.446,0.337,-9.705,202.576,723.938
-1.310,2.787,-0.037,-34.546,234.497,693.604
-1.022,3.268,-0.351,-37.903,234.497,636.475
-0.822,3.416,-0.546,-18.066,200.012,545.715
-0.614,3.374,-0.548,20.447,141.357,433.960
-0.468,3.254,-0.455,52.673,83.130,333.191
-0.374,3.032,-0.364,61.157,48.218,241.028
-0.319,2.851,-0.329,49.927,37.781,164.734
-0.275,2.707,-0.331,32.715,34.058,102.966
-0.271,2.539,-0.311,23.010,23.437,48.584
-0.313,2.332,-0.250,21.912,7.385,-2.197
-0.348,2.109,-0.178,22.339,-6.042,-45.593
-0.382,1.886,-0.127,19.592,-15.503,-80.566
-0.409,1.677,-0.092,14.038,-19.958,-105.774
-0.419,1.496,-0.076,6.775,-20.142,-121.948
-0.422,1.368,-0.061,-0.977,-19.897,-130.371
-0.394,1.274,-0.053,-6.531,-21.362,-132.080
-0.345,1.212,-0.053,-9.094,-26.855,-129.517
-0.297,1.174,-0.044,-10.376,-33.569,-127.014
-0.240,1.168,-0.024,-13.733,-38.940,-125.000
-0.186,1.177,-0.007,-18.005,-41.626,-124.146
-0.136,1.198,0.012,-23.437,-41.992,-126.099
-0.093,1.216,0.025,-29.663,-40.527,-130.249
-0.068,1.224,0.042,-34.302,-39.917,-137.756
-0.048,1.211,0.051,-36.072,-40.527,-147.217
-0.027,1.198,0.054,-34.912,-43.213,-156.311
-0.002,1.195,0.061,-32.898,-47.241,-164.612
0.018,1.194,0.065,-32.104,-50.537,-172.668
0.037,1.182,0.058,-33.752,-51.147,-180.542
0.058,1.178,0.068,-38.208,-50.964,-187.500
0.092,1.203,0.101,-45.471,-51.331,-194.031
0.128,1.238,0.121,-54.504,-50.659,-200.867
0.154,1.267,0.132,-62.378,-50.049,-208.374
0.168,1.287,0.144,-68.115,-50.842,-216.675
0.173,1.281,0.168,-71.045,-52.002,-225.891
0.187,1.265,0.192,-71.533,-51.819,-236.694
0.206,1.236,0.186,-68.481,-50.537,-247.803
0.218,1.200,0.160,-62.073,-49.072,-258.972
0.212,1.168,0.136,-55.054,-50.171,-271.973
0.236,1.095,0.125,-46.204,-54.932,-287.048
0.270,1.031,0.127,-35.767,-61.279,-300.293
0.304,1.012,0.129,-26.733,-65.979,-309.448
0.301,0.964,0.106,-19.043,-69.031,-320.496
0.281,0.873,0.079,-13.062,-69.885,-332.825
0.265,0.753,0.075,-9.705,-69.946,-344.299
0.262,0.611,0.084,-5.249,-70.862,-351.562
0.259,0.451,0.078,3.479,-73.120,-352.539
0.269,0.292,0.078,15.198,-76.233,-346.313
0.312,0.163,0.087,27.344,-79.346,-335.388
0.366,0.058,0.078,36.499,-79.712,-322.327
0.414,-0.014,0.083,41.077,-76.965,-307.861
0.447,-0.079,0.095,41.199,-73.120,-293.274
0.481,-0.173,0.146,36.255,-69.336,-280.090
0.515,-0.263,0.236,27.893,-63.904,-265.076
0.540,-0.343,0.302,17.700,-53.833,-248.291
0.581,-0.439,0.331,5.676,-40.649,-230.347
0.612,-0.563,0.314,-6.226,-27.649,-209.045

-1.138,1.326,0.850,54.016,15.320,595.764
-1.020,1.774,0.740,10.864,48.157,593.933
-0.893,2.161,0.594,-30.579,82.764,572.510
-0.761,2.459,0.481,-56.702,109.497,530.579
-0.656,2.628,0.377,-51.453,117.432,474.060
-0.582,2.674,0.307,-20.081,104.553,408.936
-0.533,2.634,0.290,17.395,79.712,344.482
-0.517,2.498,0.278,44.312,58.350,283.630
-0.531,2.378,0.276,53.589,50.232,229.126
-0.531,2.276,0.229,50.964,51.392,183.594
-0.514,2.215,0.161,42.175,54.993,144.531
-0.485,2.175,0.110,31.738,56.091,107.788
-0.458,2.127,0.071,23.010,52.856,71.228
-0.450,2.071,0.051,15.808,46.326,35.400
-0.457,1.986,0.043,10.925,38.269,2.380
-0.463,1.862,0.047,9.094,27.466,-25.940
-0.467,1.735,0.054,8.667,16.113,-48.523
-0.468,1.616,0.062,7.446,5.981,-66.650
-0.452,1.507,0.071,4.883,-2.014,-79.895
-0.413,1.420,0.077,0.610,-8.301,-88.989
-0.400,1.343,0.087,-4.395,-14.893,-95.032
-0.368,1.272,0.077,-11.414,-20.691,-98.694
-0.315,1.231,0.082,-19.836,-26.428,-100.037
-0.261,1.217,0.119,-27.100,-34.607,-101.257
-0.215,1.206,0.161,-32.654,-41.138,-104.431
-0.172,1.195,0.195,-37.903,-43.457,-109.436
-0.132,1.201,0.223,-44.312,-44.434,-115.173
-0.103,1.206,0.249,-49.255,-45.532,-121.399
-0.085,1.193,0.269,-51.819,-45.959,-126.526
-0.075,1.168,0.294,-53.162,-45.898,-130.615
-0.065,1.141,0.314,-53.467,-44.983,-133.545
-0.046,1.125,0.320,-52.734,-44.128,-135.742
-0.032,1.118,0.324,-52.307,-42.419,-137.817
-0.019,1.116,0.320,-52.734,-39.917,-139.465
0.008,1.137,0.311,-54.138,-37.170,-140.137
0.042,1.183,0.302,-57.007,-34.851,-141.418
0.095,1.253,0.271,-60.913,-32.227,-145.020
0.136,1.310,0.240,-65.430,-29.968,-152.588
0.155,1.331,0.224,-68.848,-29.297,-164.429
0.166,1.323,0.228,-69.946,-30.334,-177.612
0.179,1.296,0.241,-68.970,-31.555,-190.247
0.187,1.256,0.249,-67.505,-32.410,-202.209
0.200,1.214,0.263,-65.674,-32.837,-212.585
0.214,1.181,0.276,-63.416,-33.081,-221.680
0.239,1.172,0.275,-61.462,-33.264,-229.919
0.279,1.180,0.286,-63.660,-31.067,-238.525
0.317,1.191,0.309,-69.580,-26.001,-248.413
0.359,1.221,0.321,-75.684,-18.738,-261.292
0.359,1.207,0.308,-77.820,-11.780,-277.954
0.338,1.157,0.289,-73.669,-7.019,-297.302
0.322,1.109,0.263,-63.538,-7.812,-315.613
0.313,1.052,0.221,-50.659,-10.742,-331.787
0.288,0.965,0.165,-38.452,-14.160,-346.924
0.252,0.850,0.116,-26.794,-18.433,-359.924
0.225,0.724,0.077,-15.869,-22.644,-368.347
0.226,0.626,0.053,-6.470,-26.978,-372.131
0.222,0.528,0.034,1.465,-32.410,-372.498
0.221,0.426,0.024,7.385,-36.926,-369.629
0.248,0.338,0.001,10.925,-40.100,-364.319
0.259,0.217,-0.051,13.306,-42.725,-359.497

-0.493,2.056,-0.047,36.255,86.792,275.940
-0.511,2.108,-0.071,48.889,78.247,248.169
-0.480,2.124,-0.096,57.434,69.519,217.102
-0.439,2.108,-0.096,64.636,60.730,186.401
-0.406,2.058,-0.093,67.993,53.833,157.471
-0.376,2.012,-0.087,66.345,49.133,130.005
-0.337,1.993,-0.076,61.401,44.312,105.957
-0.294,1.981,-0.077,54.138,39.307,84.595
-0.256,1.969,-0.073,43.640,34.790,63.843
-0.224,1.945,-0.069,32.349,31.311,42.725
-0.206,1.898,-0.060,22.583,28.198,21.484
-0.205,1.835,-0.056,16.418,23.499,0.122
-0.200,1.754,-0.048,14.954,16.357,-20.203
-0.202,1.660,-0.036,16.785,6.531,-38.574
-0.209,1.558,-0.022,18.677,-3.601,-53.345
-0.204,1.477,-0.004,18.555,-11.353,-63.965
-0.182,1.411,0.007,15.076,-16.418,-71.350
-0.161,1.361,0.010,8.606,-18.921,-77.026
-0.147,1.312,0.017,1.404,-20.569,-82.703
-0.130,1.267,0.038,-4.211,-21.973,-88.562
-0.112,1.237,0.067,-9.460,-23.926,-93.994
-0.091,1.233,0.109,-14.221,-25.085,-98.572
-0.063,1.243,0.149,-18.494,-25.146,-103.271
-0.037,1.259,0.168,-22.400,-23.132,-108.765
-0.015,1.276,0.173,-25.085,-19.409,-115.784
0.002,1.286,0.172,-25.635,-16.052,-124.268
0.018,1.293,0.166,-24.475,-14.099,-133.301
0.037,1.283,0.157,-23.865,-13.123,-142.090
0.038,1.244,0.148,-24.597,-12.024,-150.330
0.036,1.197,0.141,-26.001,-10.925,-156.738
0.048,1.156,0.122,-28.687,-10.254,-160.034
0.058,1.123,0.099,-33.081,-9.399,-161.560
0.088,1.130,0.094,-37.537,-9.460,-161.987
0.132,1.161,0.109,-42.664,-10.742,-162.170
0.176,1.197,0.121,-48.462,-11.719,-163.696
0.212,1.242,0.132,-54.321,-12.024,-167.725
0.262,1.295,0.148,-60.791,-10.986,-174.011
0.287,1.327,0.150,-67.383,-10.620,-184.448
0.298,1.317,0.144,-70.435,-7.568,-197.021
0.314,1.324,0.159,-71.472,-4.517,-210.937
0.321,1.321,0.165,-68.298,-4.517,-225.952
0.329,1.297,0.151,-62.195,-5.676,-241.699
0.321,1.269,0.134,-56.091,-6.226,-257.935
0.326,1.258,0.117,-51.453,-7.202,-274.902
0.317,1.224,0.081,-47.668,-8.057,-291.260
0.270,1.124,0.058,-44.128,-9.277,-308.044
0.251,1.019,0.044,-40.039,-11.169,-322.083
0.251,0.966,0.060,-36.560,-14.648,-332.275
0.256,0.884,0.060,-30.762,-18.799,-340.271
0.254,0.792,0.033,-22.522,-23.315,-347.107
0.246,0.699,-0.009,-14.343,-28.137,-351.807
0.232,0.570,-0.057,-5.127,-34.485,-354.614
0.231,0.432,-0.112,3.967,-41.382,-355.469
0.215,0.274,-0.161,13.062,-49.622,-353.394
0.208,0.102,-0.203,20.874,-59.143,-347.717
0.200,-0.071,-0.245,25.269,-68.542,-337.585
0.182,-0.303,-0.226,26.428,-77.881,-322.815
0.176,-0.535,-0.159,21.851,-83.069,-301.575
0.232,-0.740,-0.068,9.583,-82.581,-274.963
0.313,-0.929,0.036,-4.517,-76.660,-242.493

-0.992,1.481,0.347,-27.344,109.985,551.086
-0.937,1.797,0.226,-51.636,136.536,541.138
-0.857,2.113,0.095,-73.608,161.804,515.991
-0.691,2.408,-0.052,-85.815,177.856,477.966
-0.560,2.614,-0.188,-79.712,178.650,429.565
-0.479,2.738,-0.322,-56.580,163.391,368.713
-0.403,2.723,-0.354,-24.048,132.629,297.119
-0.365,2.591,-0.307,7.507,96.252,226.746
-0.354,2.437,-0.224,27.222,68.848,163.147
-0.357,2.318,-0.173,33.020,55.237,111.206
-0.390,2.188,-0.169,27.771,52.856,68.054
-0.450,2.044,-0.179,19.653,54.077,31.067
-0.479,1.913,-0.194,16.052,51.086,3.418
-0.491,1.798,-0.214,17.822,42.358,-15.930
-0.492,1.689,-0.223,21.240,29.846,-30.029
-0.481,1.609,-0.229,22.827,18.372,-38.513
-0.451,1.564,-0.249,20.569,10.193,-44.128
-0.409,1.535,-0.274,15.808,5.249,-48.523
-0.355,1.513,-0.299,10.376,0.793,-54.077
-0.352,1.462,-0.310,5.005,-6.287,-60.669
-0.321,1.405,-0.320,-1.831,-13.611,-67.810
-0.291,1.356,-0.313,-10.925,-19.958,-73.853
-0.263,1.321,-0.282,-18.738,-28.381,-79.102
-0.244,1.270,-0.227,-23.621,-37.354,-84.595
-0.213,1.216,-0.168,-28.076,-41.870,-90.881
-0.186,1.173,-0.116,-33.569,-45.044,-95.703
-0.169,1.133,-0.059,-35.889,-49.988,-98.511
-0.141,1.105,-0.000,-33.325,-55.054,-100.281
-0.109,1.102,0.039,-28.564,-57.739,-101.501
-0.070,1.130,0.057,-24.658,-58.044,-102.844
-0.038,1.158,0.071,-22.339,-56.702,-106.445
-0.002,1.201,0.065,-20.508,-52.979,-111.816
0.040,1.247,0.044,-19.226,-49.011,-118.103
0.061,1.271,0.026,-18.188,-46.509,-126.831
0.081,1.275,0.026,-17.517,-45.654,-136.292
0.102,1.290,0.032,-16.907,-46.814,-145.020
0.132,1.302,0.033,-16.296,-49.561,-153.137
0.146,1.308,0.038,-15.686,-53.406,-162.048
0.158,1.302,0.046,-16.357,-52.246,-171.753
0.162,1.281,0.056,-17.273,-50.293,-181.763
0.185,1.280,0.058,-17.517,-48.767,-191.528
0.221,1.292,0.056,-18.921,-48.340,-200.806
0.237,1.264,0.064,-21.423,-47.852,-211.365
0.242,1.217,0.082,-23.804,-45.593,-222.839
0.266,1.191,0.130,-25.208,-42.847,-233.582
0.310,1.196,0.181,-24.231,-40.405,-243.896
0.338,1.182,0.220,-19.348,-37.231,-255.249
0.364,1.158,0.239,-13.550,-32.959,-268.494
0.376,1.108,0.229,-8.728,-27.649,-282.471
0.373,1.052,0.192,-3.174,-22.705,-295.532
0.363,0.984,0.146,3.662,-20.142,-308.167
0.345,0.899,0.085,12.207,-20.020,-319.519
0.321,0.800,0.017,20.935,-22.034,-328.369
0.309,0.705,-0.031,28.687,-26.611,-333.618
0.315,0.635,-0.043,34.180,-32.349,-335.999
0.315,0.549,-0.052,38.818,-36.438,-337.036
0.334,0.459,-0.077,42.358,-39.307,-337.708
0.339,0.346,-0.097,45.349,-43.030,-336.914
0.309,0.155,-0.118,48.218,-47.852,-333.740
0.279,-0.076,-0.109,48.401,-51.758,-324.524

-0.934,1.508,0.587,2.075,123.413,538.147
-0.876,1.906,0.428,-21.240,159.729,522.705
-0.793,2.220,0.219,-34.851,186.646,487.366
-0.707,2.430,0.046,-29.480,191.345,434.631
-0.632,2.524,-0.081,-4.517,172.485,372.009
-0.558,2.539,-0.150,31.128,138.000,306.641
-0.504,2.434,-0.169,63.660,100.647,244.385
-0.499,2.258,-0.157,75.745,73.608,188.843
-0.532,2.089,-0.137,65.308,62.744,144.531
-0.575,1.938,-0.121,43.091,61.707,110.901
-0.613,1.815,-0.121,21.851,61.523,84.900
-0.648,1.725,-0.114,7.690,57.373,66.101
-0.650,1.667,-0.082,0.549,48.096,51.819
-0.625,1.629,-0.050,-1.282,37.170,40.344
-0.593,1.613,-0.026,-0.244,27.283,29.724
-0.544,1.609,-0.009,2.563,20.081,18.738
-0.492,1.605,-0.016,5.981,15.015,5.981
-0.455,1.584,-0.041,9.827,11.780,-8.545
-0.420,1.542,-0.070,13.489,7.507,-24.780
-0.421,1.480,-0.090,15.442,0.977,-39.856
-0.409,1.400,-0.112,13.489,-4.822,-51.819
-0.399,1.344,-0.134,8.362,-10.498,-60.425
-0.380,1.306,-0.124,3.845,-19.348,-67.383
-0.343,1.283,-0.088,0.000,-28.992,-73.669
-0.306,1.271,-0.054,-5.859,-33.386,-80.505
-0.280,1.264,-0.017,-13.306,-35.889,-88.196
-0.252,1.262,0.035,-18.738,-40.222,-95.154
-0.225,1.268,0.090,-21.240,-44.678,-102.112
-0.189,1.272,0.129,-22.095,-47.180,-109.131
-0.166,1.278,0.154,-22.461,-46.753,-117.676
-0.146,1.272,0.167,-21.118,-46.692,-125.977
-0.131,1.250,0.165,-18.433,-47.241,-132.874
-0.122,1.228,0.161,-16.479,-47.058,-139.099
-0.110,1.213,0.158,-15.259,-47.119,-143.799
-0.091,1.229,0.167,-14.954,-47.058,-146.667
-0.057,1.277,0.184,-15.564,-46.265,-149.841
-0.030,1.324,0.165,-16.113,-45.044,-154.541
-0.009,1.337,0.137,-17.090,-43.762,-161.194
-0.003,1.325,0.108,-18.250,-42.847,-169.067
0.002,1.293,0.082,-18.738,-43.396,-177.490
0.008,1.259,0.080,-18.066,-46.021,-185.120
0.028,1.229,0.098,-17.883,-49.500,-192.017
0.064,1.199,0.109,-19.958,-51.636,-196.960
0.089,1.171,0.121,-23.865,-51.025,-201.843
0.120,1.152,0.141,-26.794,-49.927,-207.336
0.153,1.124,0.168,-28.259,-50.232,-212.891
0.173,1.089,0.197,-27.283,-49.622,-218.811
0.209,1.070,0.237,-24.719,-47.058,-225.098
0.238,1.044,0.262,-20.996,-43.213,-231.750
0.274,1.038,0.284,-15.747,-39.856,-238.525
0.307,1.041,0.290,-9.277,-36.438,-245.300
0.348,1.040,0.280,-4.089,-29.785,-254.150
0.362,1.000,0.238,1.160,-24.109,-264.282
0.347,0.930,0.198,7.263,-20.142,-275.208
0.341,0.863,0.184,13.306,-17.944,-284.058
0.348,0.806,0.174,20.203,-17.212,-290.771
0.358,0.732,0.166,27.649,-17.456,-295.898
0.373,0.676,0.149,33.569,-16.602,-299.866
0.374,0.614,0.117,38.208,-15.503,-303.040
0.370,0.527,0.081,41.382,-15.320,-304.565

-0.690,1.886,0.211,-27.832,102.661,404.785
-0.620,2.092,0.137,-39.246,104.614,372.925
-0.530,2.233,0.110,-38.757,93.506,333.496
-0.436,2.289,0.122,-32.349,74.585,289.429
-0.387,2.291,0.164,-26.733,56.335,242.737
-0.359,2.260,0.212,-23.743,44.373,196.289
-0.362,2.202,0.250,-22.827,38.391,152.649
-0.378,2.111,0.271,-22.400,36.011,113.892
-0.422,2.007,0.276,-19.958,35.583,81.482
-0.446,1.902,0.269,-14.954,33.936,55.481
-0.456,1.812,0.242,-8.057,31.982,35.583
-0.455,1.743,0.207,-1.526,29.175,19.653
-0.415,1.695,0.155,5.249,25.940,6.592
-0.392,1.661,0.087,10.315,22.766,-5.188
-0.360,1.625,0.025,13.977,18.616,-17.090
-0.330,1.586,-0.014,15.747,13.672,-29.053
-0.293,1.543,-0.043,15.259,7.996,-40.833
-0.294,1.484,-0.059,12.207,1.526,-51.392
-0.282,1.414,-0.080,5.981,-3.296,-60.059
-0.268,1.368,-0.086,-1.831,-7.935,-66.956
-0.242,1.345,-0.069,-8.606,-15.259,-71.960
-0.219,1.321,-0.039,-14.648,-22.217,-76.965
-0.197,1.295,-0.011,-21.301,-25.146,-83.496
-0.172,1.276,0.021,-27.893,-27.832,-89.539
-0.143,1.242,0.048,-31.799,-32.654,-94.971
-0.135,1.200,0.075,-32.715,-37.109,-99.854
-0.122,1.164,0.101,-32.837,-40.161,-103.638
-0.104,1.146,0.135,-32.776,-42.297,-106.384
-0.079,1.148,0.173,-32.288,-43.213,-108.093
-0.044,1.183,0.197,-32.532,-41.992,-109.375
-0.007,1.248,0.206,-34.607,-39.429,-112.122
0.025,1.319,0.196,-37.659,-35.767,-117.126
0.054,1.375,0.173,-39.795,-32.532,-125.122
0.073,1.415,0.158,-39.978,-30.945,-136.414
0.077,1.417,0.160,-38.269,-31.616,-149.780
0.083,1.381,0.173,-34.302,-33.386,-163.574
0.080,1.326,0.178,-29.846,-35.339,-175.903
0.083,1.285,0.174,-25.696,-36.194,-185.547
0.089,1.244,0.179,-22.644,-35.950,-193.420
0.112,1.214,0.171,-22.095,-34.058,-199.768
0.139,1.203,0.160,-23.682,-32.043,-204.651
0.173,1.185,0.165,-27.405,-29.236,-210.266
0.219,1.189,0.176,-32.166,-26.978,-217.224
0.235,1.177,0.184,-35.522,-25.635,-225.281
0.264,1.174,0.209,-38.147,-22.522,-234.924
0.272,1.132,0.236,-38.818,-19.897,-245.850
0.284,1.090,0.255,-35.339,-17.578,-256.958
0.310,1.072,0.238,-29.663,-16.663,-268.005
0.298,1.026,0.207,-22.400,-16.052,-280.029
0.282,0.961,0.185,-15.015,-15.198,-291.809
0.286,0.870,0.155,-8.057,-15.015,-301.819
0.271,0.745,0.111,-1.404,-16.052,-308.777
0.261,0.619,0.065,5.310,-17.883,-312.500
0.253,0.494,0.027,11.292,-21.179,-312.378
0.260,0.370,-0.002,15.869,-25.879,-307.739
0.287,0.269,-0.026,19.043,-30.701,-299.561
0.325,0.204,-0.038,20.447,-35.217,-289.917
0.350,0.129,-0.041,21.057,-40.100,-280.396
0.360,0.006,-0.047,20.569,-43.945,-270.447
0.371,-0.143,-0.031,17.273,-47.180,-257.324

-0.424,1.891,0.429,-15.869,62.195,348.511
-0.408,2.021,0.387,-9.277,69.702,318.665
-0.396,2.100,0.324,1.404,73.669,285.889
-0.362,2.147,0.242,14.526,73.853,252.930
-0.365,2.177,0.184,25.940,68.604,222.290
-0.379,2.177,0.084,31.982,60.303,198.853
-0.381,2.200,-0.039,29.419,59.875,175.110
-0.322,2.225,-0.094,15.686,60.852,144.348
-0.283,2.202,-0.095,3.540,59.631,110.718
-0.268,2.139,-0.084,-1.526,53.711,81.787
-0.264,2.068,-0.074,-4.333,44.434,58.289
-0.259,1.992,-0.056,-5.554,33.997,38.818
-0.252,1.906,-0.037,-3.723,24.597,21.362
-0.246,1.821,-0.030,-0.916,19.043,4.395
-0.250,1.746,-0.045,1.587,17.883,-10.620
-0.254,1.679,-0.088,2.747,17.883,-25.146
-0.261,1.629,-0.149,3.906,16.235,-37.720
-0.262,1.592,-0.212,4.944,11.169,-47.913
-0.252,1.562,-0.260,4.761,2.380,-57.678
-0.233,1.537,-0.286,4.150,-8.606,-68.787
-0.210,1.485,-0.281,2.075,-20.386,-80.078
-0.200,1.402,-0.253,-2.686,-31.128,-90.698
-0.194,1.335,-0.207,-10.925,-39.185,-99.182
-0.175,1.285,-0.139,-20.691,-45.105,-105.408
-0.149,1.256,-0.051,-29.175,-49.561,-109.802
-0.110,1.267,0.041,-35.828,-52.063,-113.708
-0.067,1.303,0.115,-39.795,-52.185,-118.408
-0.019,1.352,0.158,-40.649,-50.537,-125.061
0.018,1.388,0.176,-38.818,-48.584,-134.277
0.036,1.398,0.185,-34.058,-48.157,-146.240
0.055,1.385,0.199,-27.588,-48.706,-158.203
0.075,1.378,0.214,-21.057,-48.767,-169.617
0.095,1.370,0.228,-15.015,-48.340,-180.908
0.114,1.355,0.228,-9.155,-46.936,-192.383
0.126,1.334,0.222,-4.517,-43.884,-203.796
0.140,1.313,0.217,-1.038,-40.344,-214.783
0.150,1.273,0.215,0.549,-37.842,-224.609
0.180,1.232,0.224,0.854,-34.973,-233.215
0.194,1.176,0.231,0.610,-32.104,-241.211
0.199,1.106,0.240,-0.427,-29.602,-248.108
0.208,1.035,0.242,-0.793,-26.306,-253.357
0.227,0.983,0.241,-0.793,-21.179,-258.179
0.239,0.927,0.231,0.793,-17.700,-262.512
0.243,0.871,0.208,3.784,-14.832,-266.296
0.251,0.820,0.188,5.249,-12.329,-268.738
0.268,0.782,0.171,6.042,-10.254,-270.020
0.283,0.735,0.140,7.080,-8.667,-271.545
0.292,0.695,0.114,8.057,-8.179,-273.254
0.313,0.666,0.102,8.850,-8.850,-275.085
0.338,0.612,0.080,10.925,-10.254,-277.344
0.337,0.534,0.046,14.160,-13.672,-279.419
0.320,0.426,0.025,18.250,-18.494,-280.579
0.332,0.311,0.014,22.705,-23.315,-278.748
0.341,0.191,0.002,26.062,-27.161,-273.987
0.332,0.063,-0.010,27.893,-30.151,-265.869
0.324,-0.065,-0.010,28.259,-32.410,-253.113
0.365,-0.190,0.007,24.597,-34.790,-236.328
0.433,-0.281,0.052,17.151,-34.668,-214.722
0.499,-0.330,0.074,6.714,-31.738,-189.148
0.552,-0.358,0.097,-7.202,-27.649,-165.344

-0.488,2.216,0.098,56.763,50.903,373.047
-0.382,2.419,0.035,63.416,40.649,328.552
-0.349,2.442,0.055,57.007,30.029,273.682
-0.459,2.322,0.034,42.725,15.381,232.605
-0.468,2.240,0.018,22.400,15.137,197.632
-0.431,2.159,0.082,2.014,18.921,163.879
-0.396,2.083,0.203,-8.118,21.545,133.545
-0.382,1.974,0.281,-7.202,26.428,110.046
-0.374,1.953,0.310,-4.944,31.860,93.323
-0.345,1.979,0.294,-0.488,33.203,80.078
-0.309,2.030,0.250,8.789,29.114,68.237
-0.276,2.047,0.167,16.907,24.109,51.941
-0.268,2.032,0.084,21.851,22.644,29.053
-0.267,1.953,0.000,23.743,22.034,2.502
-0.274,1.841,-0.064,24.902,19.348,-21.790
-0.276,1.719,-0.123,25.146,13.489,-41.809
-0.298,1.589,-0.172,23.804,6.287,-57.556
-0.335,1.458,-0.203,20.203,-1.770,-69.519
-0.332,1.367,-0.206,13.733,-9.216,-77.698
-0.307,1.321,-0.188,4.578,-15.137,-82.703
-0.284,1.303,-0.150,-5.249,-21.545,-86.182
-0.255,1.310,-0.095,-14.404,-28.259,-89.966
-0.223,1.324,-0.046,-23.499,-31.677,-95.093
-0.183,1.364,0.000,-32.715,-32.959,-102.783
-0.155,1.377,0.046,-39.063,-35.156,-112.183
-0.141,1.363,0.093,-40.894,-37.476,-122.864
-0.118,1.351,0.127,-40.100,-39.246,-132.812
-0.092,1.330,0.141,-35.645,-41.199,-142.700
-0.084,1.276,0.145,-28.320,-44.739,-152.039
-0.083,1.198,0.147,-19.775,-48.218,-159.607
-0.066,1.150,0.157,-12.451,-49.561,-163.635
-0.026,1.141,0.166,-7.996,-48.889,-164.429
0.010,1.144,0.168,-6.287,-46.692,-164.917
0.036,1.151,0.186,-6.165,-43.030,-166.138
0.074,1.176,0.205,-7.080,-38.879,-167.847
0.110,1.209,0.234,-7.874,-35.217,-170.227
0.155,1.245,0.273,-8.301,-30.579,-174.438
0.193,1.281,0.307,-7.812,-24.963,-181.213
0.229,1.300,0.325,-6.531,-18.616,-191.040
0.240,1.291,0.305,-3.845,-11.108,-202.698
0.241,1.269,0.266,-1.465,-4.211,-215.210
0.234,1.227,0.228,0.549,0.366,-226.990
0.224,1.156,0.205,3.174,2.136,-236.572
0.246,1.123,0.202,6.897,1.404,-243.774
0.282,1.098,0.205,10.681,0.549,-250.854
0.284,1.029,0.185,14.526,1.038,-258.484
0.266,0.949,0.151,18.372,2.014,-266.174
0.262,0.879,0.130,21.729,1.465,-271.729
0.265,0.800,0.104,23.743,0.427,-273.926
0.273,0.726,0.063,23.010,-1.099,-273.376
0.272,0.640,0.031,19.775,-2.930,-271.301
0.281,0.549,0.018,15.137,-5.615,-266.968
0.302,0.468,0.018,10.132,-9.155,-260.193
0.343,0.414,0.025,6.104,-12.512,-252.991
0.381,0.379,0.030,3.357,-16.296,-246.826
0.397,0.320,0.028,3.479,-20.508,-242.371
0.411,0.263,0.026,5.127,-24.353,-237.976
0.428,0.216,0.018,6.592,-27.649,-232.178
0.448,0.160,0.008,7.446,-31.616,-224.792
0.466,0.052,0.000,8.057,-34.241,-216.553

-0.668,1.948,0.457,-61.218,5.066,402.710
-0.479,2.108,0.203,-95.032,37.048,391.113
-0.367,2.289,0.169,-138.489,59.753,358.215
-0.338,2.342,0.164,-157.043,61.340,322.571
-0.318,2.297,0.230,-153.259,61.462,276.855
-0.298,2.307,0.265,-140.869,67.322,239.502
-0.263,2.397,0.261,-127.197,71.899,213.318
-0.130,2.512,0.265,-102.661,71.960,185.608
-0.053,2.526,0.273,-64.697,67.810,140.808
-0.058,2.466,0.221,-20.996,54.626,98.145
-0.111,2.361,0.114,13.977,39.612,62.866
-0.163,2.243,-0.035,38.330,27.771,36.926
-0.187,2.109,-0.163,51.575,18.555,13.062
-0.200,1.959,-0.228,54.382,13.123,-9.766
-0.201,1.831,-0.264,46.387,12.085,-27.161
-0.215,1.738,-0.303,32.593,9.766,-36.865
-0.204,1.663,-0.319,18.372,0.183,-41.565
-0.186,1.611,-0.294,5.615,-11.719,-44.434
-0.151,1.579,-0.241,-5.798,-21.545,-49.561
-0.112,1.554,-0.161,-15.015,-28.931,-58.044
-0.083,1.506,-0.083,-20.569,-33.813,-70.190
-0.074,1.429,-0.012,-23.560,-35.950,-82.703
-0.066,1.366,0.046,-23.560,-38.635,-92.712
-0.044,1.340,0.104,-21.851,-41.748,-99.854
-0.020,1.324,0.147,-19.836,-41.992,-106.323
-0.000,1.318,0.174,-19.104,-38.635,-113.586
0.021,1.324,0.185,-18.494,-33.875,-121.155
0.041,1.311,0.180,-16.907,-29.358,-128.601
0.056,1.287,0.162,-14.465,-25.879,-136.108
0.073,1.277,0.130,-11.841,-24.719,-142.456
0.085,1.274,0.091,-8.911,-27.039,-148.010
0.100,1.241,0.074,-7.019,-30.396,-153.687
0.110,1.204,0.078,-6.470,-32.837,-158.997
0.129,1.193,0.094,-6.409,-34.241,-163.391
0.161,1.194,0.110,-6.226,-35.950,-167.847
0.187,1.184,0.124,-6.165,-37.109,-173.157
0.206,1.180,0.144,-6.714,-37.415,-179.077
0.227,1.184,0.163,-7.568,-36.682,-185.913
0.251,1.182,0.175,-8.667,-35.034,-193.298
0.253,1.142,0.181,-9.949,-32.593,-201.294
0.261,1.090,0.185,-10.437,-29.907,-209.351
0.267,1.026,0.183,-9.521,-28.625,-215.637
0.278,0.966,0.181,-6.409,-29.297,-220.154
0.290,0.918,0.174,-3.113,-27.710,-224.976
0.291,0.869,0.163,0.671,-26.550,-229.980
0.290,0.835,0.152,4.639,-25.818,-234.436
0.310,0.849,0.151,6.287,-25.208,-238.586
0.338,0.882,0.151,5.005,-24.231,-244.385
0.335,0.860,0.142,1.221,-22.278,-253.174
0.307,0.755,0.123,-2.686,-20.874,-262.390
0.289,0.629,0.106,-4.822,-20.813,-267.456
0.294,0.521,0.095,-5.981,-23.071,-267.456
0.291,0.436,0.061,-5.676,-26.794,-264.465
0.317,0.286,0.035,-5.188,-32.471,-260.986
0.330,0.163,0.036,-2.319,-37.476,-252.869
0.350,0.068,0.037,-1.282,-41.199,-241.943
0.374,-0.041,0.040,-0.854,-43.762,-230.591
0.409,-0.152,0.051,-1.648,-45.105,-218.506
0.444,-0.241,0.070,-4.456,-45.471,-204.651
0.484,-0.339,0.094,-8.240,-45.227,-189.819

-0.442,2.053,0.315,17.456,70.129,316.406
-0.573,2.202,0.183,3.662,56.763,319.580
-0.516,2.458,-0.072,-20.752,71.472,312.378
-0.379,2.731,-0.258,-57.129,80.444,284.912
-0.229,2.873,-0.311,-74.890,76.172,236.084
-0.139,2.798,-0.250,-69.824,63.232,171.570
-0.113,2.652,-0.162,-54.993,45.532,114.624
-0.125,2.457,-0.103,-36.316,23.193,69.641
-0.154,2.241,-0.057,-15.686,1.709,32.227
-0.204,2.026,-0.022,0.793,-13.123,3.479
-0.226,1.858,-0.028,9.644,-17.761,-14.771
-0.221,1.741,-0.055,11.719,-16.174,-28.748
-0.209,1.645,-0.078,12.085,-14.709,-40.833
-0.188,1.570,-0.097,12.207,-15.076,-50.842
-0.160,1.528,-0.106,11.047,-17.212,-57.800
-0.131,1.490,-0.105,10.010,-22.095,-64.148
-0.118,1.435,-0.093,8.118,-28.015,-72.144
-0.094,1.387,-0.072,2.380,-31.311,-80.566
-0.063,1.348,-0.057,-5.310,-32.227,-88.257
-0.048,1.279,-0.046,-12.878,-32.959,-95.398
-0.054,1.192,-0.021,-19.836,-33.447,-101.685
-0.059,1.120,0.022,-25.330,-34.546,-105.225
-0.040,1.091,0.068,-29.053,-35.889,-105.225
-0.015,1.102,0.104,-31.494,-36.560,-103.577
0.018,1.147,0.126,-33.447,-35.950,-103.149
0.064,1.224,0.132,-34.668,-33.264,-105.164
0.118,1.324,0.125,-33.691,-30.762,-111.572
0.169,1.424,0.108,-31.372,-29.968,-123.352
0.184,1.476,0.095,-28.564,-31.006,-140.076
0.176,1.467,0.089,-25.452,-32.471,-159.668
0.154,1.403,0.082,-22.400,-33.752,-178.528
0.131,1.303,0.075,-18.677,-34.302,-193.726
0.113,1.193,0.071,-13.672,-36.438,-203.918
0.121,1.099,0.074,-7.324,-40.405,-208.801
0.142,1.026,0.085,-1.038,-44.983,-209.473
0.178,0.993,0.104,4.578,-49.133,-208.130
0.234,0.993,0.136,7.629,-50.110,-206.970
0.278,1.009,0.159,8.850,-48.157,-208.069
0.305,1.020,0.178,8.362,-43.945,-212.891
0.327,1.032,0.194,6.226,-39.124,-219.727
0.352,1.026,0.195,4.700,-35.400,-227.539
0.366,1.003,0.177,4.333,-33.203,-236.511
0.362,0.948,0.149,4.456,-33.264,-247.131
0.347,0.824,0.141,6.104,-34.851,-258.240
0.340,0.717,0.147,10.559,-36.560,-263.306
0.338,0.608,0.151,13.916,-37.842,-265.320
0.347,0.505,0.141,17.151,-37.354,-264.526
0.362,0.422,0.122,19.531,-35.645,-261.536
0.382,0.368,0.105,20.996,-34.607,-257.019
0.388,0.315,0.096,21.667,-34.119,-251.282
0.401,0.251,0.096,21.057,-33.813,-244.690
0.431,0.196,0.099,20.264,-33.508,-237.061
0.455,0.130,0.097,19.287,-33.691,-228.943
0.476,0.044,0.098,17.456,-35.095,-220.032
0.487,-0.061,0.113,13.916,-36.133,-209.167
0.502,-0.215,0.151,7.874,-34.790,-195.984
0.539,-0.354,0.200,-1.892,-29.114,-178.955
0.582,-0.441,0.244,-13.611,-19.226,-158.081
0.632,-0.459,0.254,-23.865,-7.507,-135.071
0.676,-0.434,0.234,-30.945,2.136,-113.342

-0.265,2.265,0.099,-4.333,108.032,332.336
-0.181,2.430,-0.005,-14.343,111.755,301.331
-0.380,2.437,-0.243,-19.775,98.389,279.175
-0.366,2.445,-0.438,-32.410,96.069,245.728
-0.293,2.434,-0.539,-43.396,87.585,208.740
-0.237,2.373,-0.512,-43.274,70.129,166.138
-0.194,2.249,-0.377,-26.917,52.063,125.244
-0.186,2.139,-0.281,-10.132,39.551,95.825
-0.193,2.097,-0.234,1.099,29.358,75.256
-0.181,2.086,-0.201,14.343,17.761,56.946
-0.168,2.064,-0.207,28.748,6.104,39.917
-0.152,2.038,-0.259,37.292,1.343,22.156
-0.146,1.978,-0.311,38.025,0.183,2.319
-0.148,1.877,-0.341,34.668,-3.418,-15.869
-0.155,1.767,-0.354,28.687,-9.460,-30.151
-0.147,1.645,-0.347,20.691,-15.686,-41.687
-0.139,1.524,-0.310,12.756,-21.301,-52.246
-0.133,1.416,-0.260,4.944,-26.611,-58.533
-0.124,1.336,-0.210,-2.014,-31.921,-60.974
-0.102,1.274,-0.159,-7.568,-35.828,-62.622
-0.078,1.225,-0.098,-12.329,-38.513,-64.880
-0.060,1.179,-0.033,-16.052,-39.917,-67.200
-0.036,1.150,0.017,-18.188,-39.429,-68.665
-0.013,1.131,0.048,-18.982,-37.964,-69.458
0.007,1.124,0.062,-17.883,-36.865,-70.740
0.024,1.117,0.067,-14.954,-36.072,-73.059
0.038,1.126,0.073,-11.658,-34.851,-76.233
0.061,1.160,0.076,-8.789,-32.837,-80.200
0.087,1.207,0.059,-6.165,-30.945,-85.388
0.101,1.227,0.040,-2.808,-30.396,-93.445
0.106,1.223,0.026,0.916,-31.372,-102.234
0.114,1.208,0.017,4.089,-33.203,-110.413
0.124,1.184,0.015,5.859,-35.461,-117.188
0.134,1.161,0.035,6.104,-37.598,-122.742
0.153,1.152,0.055,5.737,-38.574,-126.770
0.167,1.135,0.060,5.249,-38.696,-130.005
0.177,1.118,0.066,4.089,-38.391,-132.996
0.196,1.127,0.075,0.916,-37.476,-135.193
0.230,1.158,0.080,-2.747,-36.316,-137.207
0.261,1.184,0.078,-6.409,-36.194,-140.808
0.308,1.241,0.094,-9.888,-34.302,-147.156
0.350,1.302,0.118,-11.963,-32.471,-158.081
0.366,1.328,0.125,-9.949,-31.433,-174.133
0.367,1.298,0.128,-6.226,-31.555,-193.054
0.347,1.215,0.133,-1.099,-31.860,-211.426
0.325,1.105,0.125,5.371,-32.898,-226.929
0.297,0.984,0.110,13.062,-33.997,-237.366
0.292,0.883,0.107,19.104,-34.912,-242.737
0.310,0.832,0.116,23.560,-35.095,-244.934
0.320,0.788,0.118,27.466,-34.058,-246.155
0.337,0.760,0.123,30.029,-31.616,-247.925
0.367,0.758,0.123,31.494,-29.358,-249.878
0.382,0.747,0.115,33.630,-28.748,-252.930
0.406,0.699,0.131,35.400,-29.724,-258.423
0.425,0.647,0.132,39.490,-29.358,-262.024
0.419,0.556,0.113,42.480,-29.053,-266.052
0.406,0.434,0.100,45.959,-29.663,-269.470
0.396,0.291,0.089,49.683,-29.785,-268.005
0.402,0.172,0.080,51.270,-29.297,-261.230
0.415,0.070,0.066,51.819,-27.771,-250.122

-0.658,1.931,0.080,-28.015,88.013,427.063
-0.641,2.088,-0.051,-44.983,102.112,400.085
-0.515,2.170,-0.085,-52.856,107.239,369.324
-0.663,2.179,-0.092,-49.927,93.445,342.957
-0.614,2.216,-0.155,-42.908,87.158,317.200
-0.523,2.377,-0.193,-37.537,90.454,288.818
-0.419,2.520,-0.212,-28.564,84.778,249.146
-0.310,2.534,-0.155,-10.132,73.730,194.397
-0.277,2.455,-0.120,8.301,65.430,141.235
-0.280,2.367,-0.125,19.104,58.167,97.107
-0.296,2.273,-0.125,26.978,46.509,59.814
-0.308,2.173,-0.129,35.278,31.128,30.701
-0.327,2.061,-0.150,40.466,18.921,7.385
-0.341,1.949,-0.169,40.466,11.475,-12.329
-0.338,1.840,-0.191,36.133,6.348,-28.992
-0.333,1.737,-0.217,28.931,2.075,-41.382
-0.322,1.650,-0.241,20.813,-2.686,-50.537
-0.307,1.575,-0.249,12.695,-9.094,-57.129
-0.283,1.502,-0.240,4.578,-16.296,-63.599
-0.256,1.432,-0.212,-3.296,-22.217,-71.106
-0.230,1.364,-0.171,-10.742,-27.954,-77.148
-0.206,1.310,-0.121,-16.602,-34.973,-81.299
-0.175,1.273,-0.066,-19.958,-41.382,-84.534
-0.148,1.234,-0.017,-21.973,-45.105,-88.318
-0.123,1.195,0.030,-22.888,-46.570,-93.201
-0.102,1.177,0.074,-21.667,-46.753,-97.961
-0.079,1.175,0.102,-18.311,-46.509,-102.112
-0.052,1.175,0.113,-13.916,-46.265,-106.201
-0.030,1.179,0.118,-9.033,-45.654,-111.206
0.000,1.200,0.120,-5.066,-45.532,-116.333
0.026,1.216,0.122,-2.930,-45.471,-121.704
0.053,1.223,0.113,-2.747,-43.945,-127.136
0.070,1.220,0.110,-4.089,-42.297,-133.240
0.086,1.204,0.112,-4.639,-41.626,-138.977
0.105,1.190,0.126,-4.333,-41.687,-143.127
0.126,1.184,0.153,-3.906,-42.175,-146.729
0.155,1.191,0.172,-3.601,-42.664,-149.780
0.185,1.206,0.180,-3.723,-42.969,-152.222
0.226,1.242,0.177,-5.798,-40.527,-155.945
0.267,1.277,0.182,-10.132,-36.926,-161.804
0.292,1.291,0.197,-13.306,-33.752,-170.288
0.318,1.291,0.219,-15.137,-30.701,-180.664
0.335,1.274,0.236,-15.991,-27.222,-192.322
0.344,1.236,0.243,-15.259,-22.949,-204.590
0.345,1.184,0.245,-11.841,-19.104,-215.942
0.352,1.135,0.238,-6.287,-16.968,-226.501
0.361,1.072,0.221,0.854,-16.235,-235.168
0.367,0.997,0.196,8.423,-16.235,-242.493
0.366,0.939,0.175,14.526,-15.869,-248.169
0.385,0.893,0.166,18.555,-15.320,-252.136
0.388,0.848,0.160,20.264,-13.611,-255.371
0.390,0.798,0.161,20.630,-11.414,-257.996
0.400,0.752,0.160,20.203,-9.033,-259.460
0.405,0.697,0.146,19.836,-7.263,-260.254
0.402,0.623,0.126,19.714,-6.958,-260.376
0.404,0.551,0.113,20.081,-8.057,-258.911
0.413,0.497,0.099,21.179,-9.705,-257.141
0.424,0.441,0.076,22.827,-11.047,-255.249
0.421,0.363,0.066,23.560,-11.963,-253.540
0.409,0.252,0.069,23.010,-12.939,-250.793

-0.840,1.463,0.683,115.295,-19.958,480.713
-0.554,1.856,0.606,80.078,-5.249,482.910
-0.687,2.099,0.726,33.875,-0.305,473.206
-0.918,2.197,0.498,-4.639,8.179,471.985
-0.745,2.505,0.259,-48.767,52.124,450.928
-0.564,2.874,0.119,-90.515,74.402,421.204
-0.362,3.053,0.056,-102.112,77.148,365.234
-0.290,2.954,0.061,-86.670,71.594,294.800
-0.243,2.804,0.094,-66.711,63.477,235.291
-0.242,2.631,0.145,-44.861,54.871,180.237
-0.256,2.463,0.174,-15.381,37.048,137.024
-0.290,2.326,0.166,10.071,19.104,106.079
-0.315,2.261,0.112,26.733,8.118,84.106
-0.278,2.202,0.049,35.034,6.287,60.730
-0.279,2.088,-0.015,36.926,11.169,32.959
-0.291,1.988,-0.087,31.372,17.578,8.118
-0.297,1.913,-0.167,22.156,19.531,-9.705
-0.272,1.858,-0.221,15.747,12.390,-24.597
-0.246,1.796,-0.215,11.719,0.366,-40.100
-0.231,1.713,-0.171,7.690,-11.902,-57.007
-0.217,1.607,-0.110,2.869,-20.264,-73.730
-0.202,1.503,-0.054,-3.784,-24.536,-87.524
-0.188,1.418,-0.001,-11.536,-27.893,-97.351
-0.171,1.357,0.059,-18.250,-30.640,-105.286
-0.155,1.292,0.112,-22.522,-32.166,-112.671
-0.140,1.243,0.159,-25.391,-31.921,-118.896
-0.105,1.235,0.199,-27.832,-30.518,-123.840
-0.072,1.243,0.207,-28.320,-29.419,-127.991
-0.047,1.236,0.196,-25.879,-29.724,-133.606
-0.034,1.199,0.187,-21.606,-32.227,-140.442
-0.010,1.163,0.187,-17.761,-34.912,-146.484
-0.009,1.109,0.180,-13.611,-38.330,-151.428
0.003,1.058,0.188,-9.705,-42.053,-154.297
0.028,1.019,0.203,-7.446,-43.640,-154.785
0.045,0.983,0.215,-6.287,-43.884,-154.175
0.065,0.950,0.233,-5.737,-43.091,-152.588
0.102,0.965,0.253,-6.348,-41.382,-149.292
0.144,0.995,0.267,-7.690,-39.063,-146.484
0.166,1.009,0.268,-9.827,-35.583,-146.179
0.209,1.034,0.265,-12.634,-32.227,-147.522
0.228,1.037,0.252,-15.015,-29.419,-150.940
0.241,1.015,0.256,-17.395,-26.978,-156.189
0.246,0.974,0.253,-18.738,-24.963,-161.377
0.254,0.950,0.263,-18.799,-22.705,-165.283
0.282,0.962,0.280,-17.944,-20.752,-167.908
0.313,0.981,0.280,-15.198,-18.372,-170.227
0.337,1.015,0.274,-11.169,-15.808,-173.645
0.375,1.059,0.261,-8.240,-12.756,-179.199
0.393,1.079,0.243,-6.287,-8.789,-187.439
0.412,1.100,0.234,-5.676,-4.456,-198.486
0.423,1.112,0.220,-4.944,-1.160,-210.815
0.415,1.094,0.202,-2.136,0.854,-224.182
0.401,1.050,0.187,1.770,0.977,-237.854
0.382,0.966,0.163,6.470,0.000,-249.695
0.362,0.859,0.139,11.230,-1.587,-258.911
0.354,0.781,0.130,15.991,-3.784,-265.198
0.362,0.753,0.109,20.752,-6.958,-268.738
0.384,0.672,0.086,24.902,-11.292,-273.987
0.368,0.586,0.078,31.006,-15.381,-276.978
0.364,0.497,0.078,34.729,-19.226,-277.893

-0.308,2.243,-0.187,-63.965,50.842,435.974
-0.231,2.352,-0.223,-85.571,48.035,387.695
-0.199,2.361,-0.149,-98.755,42.908,333.069
-0.162,2.319,-0.043,-104.065,36.621,278.931
-0.184,2.246,0.070,-97.534,27.771,233.215
-0.204,2.166,0.099,-82.642,23.987,195.801
-0.189,2.125,0.115,-66.101,25.269,159.485
-0.159,2.077,0.149,-44.617,26.672,122.192
-0.172,1.996,0.174,-17.883,28.809,85.815
-0.208,1.918,0.154,7.080,32.776,55.359
-0.228,1.862,0.086,29.175,36.682,32.104
-0.231,1.820,-0.011,48.767,36.316,13.306
-0.218,1.787,-0.100,63.232,31.555,-1.953
-0.199,1.753,-0.179,68.970,25.696,-15.503
-0.190,1.709,-0.241,66.345,20.569,-29.053
-0.165,1.665,-0.269,58.289,15.015,-41.382
-0.171,1.617,-0.269,46.936,6.165,-50.354
-0.173,1.554,-0.260,33.447,-3.418,-55.847
-0.141,1.508,-0.222,18.921,-11.292,-60.852
-0.109,1.469,-0.181,4.944,-17.395,-67.017
-0.068,1.441,-0.133,-5.432,-22.583,-74.707
-0.041,1.403,-0.055,-11.963,-27.893,-83.191
-0.017,1.370,0.022,-16.418,-31.433,-89.844
0.010,1.352,0.075,-18.616,-33.447,-94.971
0.037,1.338,0.112,-17.456,-33.875,-101.074
0.061,1.325,0.134,-12.695,-34.363,-109.131
0.066,1.292,0.131,-5.493,-34.241,-118.164
0.078,1.271,0.134,0.549,-31.738,-127.014
0.076,1.251,0.129,5.798,-30.701,-134.094
0.085,1.237,0.109,9.338,-29.602,-139.343
0.098,1.225,0.089,9.094,-27.222,-143.066
0.112,1.211,0.080,6.287,-23.987,-146.301
0.140,1.210,0.077,2.808,-21.240,-149.292
0.158,1.200,0.082,-0.244,-19.226,-152.405
0.180,1.187,0.093,-3.296,-17.822,-155.823
0.205,1.173,0.106,-6.775,-17.029,-158.936
0.218,1.151,0.120,-9.521,-15.808,-162.170
0.238,1.128,0.133,-10.803,-15.076,-165.527
0.255,1.090,0.143,-10.559,-15.137,-168.640
0.271,1.053,0.144,-9.277,-14.465,-171.326
0.298,1.031,0.144,-7.812,-14.404,-173.584
0.324,1.015,0.140,-6.042,-14.526,-176.331
0.346,0.995,0.142,-4.211,-14.404,-179.626
0.363,0.985,0.137,-2.808,-13.550,-183.350
0.370,0.961,0.142,-1.831,-12.329,-187.866
0.390,0.931,0.146,-1.526,-10.498,-191.650
0.409,0.890,0.141,-2.625,-8.057,-194.458
0.427,0.842,0.125,-3.906,-5.188,-196.655
0.449,0.810,0.104,-4.700,-3.113,-199.158
0.471,0.756,0.084,-3.967,-3.357,-203.064
0.484,0.698,0.074,0.488,-5.554,-205.383
0.485,0.657,0.073,5.432,-8.606,-206.848
0.499,0.601,0.082,10.010,-12.207,-208.679
0.513,0.558,0.095,14.709,-14.282,-208.984
0.534,0.520,0.101,17.761,-14.343,-208.618
0.550,0.487,0.104,19.775,-14.038,-208.130
0.563,0.469,0.112,21.667,-12.817,-206.787
0.582,0.444,0.115,21.606,-11.475,-205.872
0.591,0.406,0.113,20.935,-9.888,-205.566
0.598,0.351,0.105,19.653,-7.568,-205.078

-0.524,1.835,0.493,56.274,109.253,496.277
-0.875,2.148,0.439,26.428,108.887,489.075
-1.026,2.139,-0.059,-13.916,141.235,476.929
-0.970,2.274,-0.398,-95.947,195.496,460.999
-0.807,2.618,-0.529,-181.152,215.210,452.576
-0.809,2.838,-0.527,-213.684,205.688,430.481
-0.567,3.062,-0.453,-204.346,191.345,393.982
-0.302,3.366,-0.412,-176.331,176.331,350.403
-0.094,3.529,-0.442,-126.465,153.809,283.508
0.020,3.492,-0.523,-52.979,120.667,199.402
0.021,3.265,-0.598,20.508,80.017,109.863
-0.066,2.908,-0.682,76.843,45.044,30.640
-0.170,2.543,-0.742,101.868,21.179,-26.306
-0.249,2.216,-0.737,102.173,-1.892,-61.401
-0.302,1.894,-0.682,94.177,-23.926,-81.909
-0.294,1.626,-0.592,79.651,-37.903,-90.881
-0.287,1.425,-0.496,58.777,-45.410,-91.309
-0.253,1.263,-0.430,37.048,-49.988,-87.036
-0.197,1.187,-0.364,18.433,-52.917,-78.491
-0.137,1.176,-0.310,5.432,-55.969,-68.115
-0.079,1.184,-0.237,-1.953,-59.082,-64.270
-0.043,1.162,-0.171,-5.615,-58.228,-69.153
-0.023,1.124,-0.123,-8.484,-55.847,-75.867
-0.002,1.090,-0.093,-9.277,-55.786,-81.177
0.013,1.043,-0.064,-6.958,-58.350,-85.693
0.030,0.988,-0.036,-3.845,-61.279,-88.806
0.041,0.930,-0.012,-2.197,-61.951,-91.064
0.042,0.878,0.010,-1.526,-59.021,-91.614
0.055,0.849,0.022,-1.831,-54.443,-89.417
0.080,0.853,0.028,-1.953,-50.354,-85.205
0.120,0.885,0.029,-1.343,-46.753,-80.200
0.154,0.941,0.023,-0.610,-43.457,-76.111
0.195,1.010,0.015,0.122,-41.992,-74.463
0.223,1.056,0.007,1.160,-41.748,-75.745
0.232,1.066,0.015,1.343,-42.053,-80.261
0.233,1.071,0.033,1.221,-41.931,-84.900
0.234,1.054,0.037,1.404,-41.138,-89.172
0.239,1.038,0.036,0.793,-40.161,-91.431
0.244,1.046,0.037,-1.160,-38.757,-92.163
0.248,1.070,0.039,-3.723,-36.682,-91.919
0.298,1.116,0.030,-6.226,-35.583,-91.919
0.312,1.129,0.013,-9.338,-34.302,-94.727
0.330,1.135,0.019,-13.184,-32.715,-99.609
0.338,1.141,0.007,-15.015,-31.372,-104.187
0.353,1.143,-0.008,-14.954,-31.128,-109.558
0.373,1.140,-0.015,-13.733,-31.921,-115.479
0.390,1.137,-0.014,-12.207,-32.776,-122.070
0.398,1.142,-0.010,-10.010,-33.325,-129.639
0.409,1.147,-0.005,-6.470,-33.936,-138.489
0.417,1.127,-0.006,-2.563,-35.706,-148.132
0.422,1.106,0.003,1.099,-36.804,-157.715
0.438,1.100,0.013,5.554,-37.048,-167.175
0.458,1.089,0.013,11.047,-37.781,-177.734
0.475,1.077,0.010,17.090,-39.063,-189.880
0.472,1.029,0.003,23.254,-41.260,-203.125
0.458,0.954,0.007,28.076,-43.579,-215.515
0.449,0.885,0.028,30.884,-44.312,-225.586
0.427,0.849,0.045,33.325,-43.945,-233.643
0.449,0.758,0.068,35.706,-43.030,-241.882
0.457,0.698,0.087,40.405,-41.260,-246.094

-1.018,1.794,0.988,-25.452,-43.274,615.906
-0.603,2.467,0.788,-82.031,-5.066,611.145
-0.322,2.860,0.447,-139.282,44.312,571.533
-0.233,2.996,0.046,-181.824,89.966,504.822
-0.197,2.985,-0.181,-193.848,103.516,422.791
-0.143,2.907,-0.172,-170.227,76.111,341.187
-0.075,2.785,-0.045,-121.033,29.907,264.404
-0.081,2.505,0.155,-67.871,-5.188,194.519
-0.131,2.240,0.317,-34.790,-13.306,135.620
-0.182,2.041,0.361,-18.311,2.930,92.529
-0.228,1.916,0.286,-7.202,26.550,61.035
-0.248,1.833,0.162,3.723,42.542,37.048
-0.251,1.779,0.043,17.090,47.302,17.700
-0.242,1.742,-0.060,30.151,41.931,2.258
-0.209,1.704,-0.143,39.795,29.785,-9.277
-0.167,1.667,-0.186,41.809,17.029,-19.409
-0.132,1.620,-0.203,35.889,6.836,-29.114
-0.099,1.573,-0.198,27.344,-2.014,-38.269
-0.077,1.523,-0.160,18.433,-10.559,-46.936
-0.060,1.469,-0.107,10.132,-18.127,-56.091
-0.043,1.415,-0.040,2.991,-23.804,-65.063
-0.031,1.373,0.026,-2.563,-27.771,-73.181
-0.007,1.357,0.104,-8.240,-31.189,-79.895
0.014,1.332,0.167,-12.878,-32.898,-86.975
0.034,1.307,0.208,-15.869,-32.349,-93.262
0.060,1.293,0.239,-17.578,-29.968,-99.670
0.088,1.296,0.265,-17.456,-26.611,-106.750
0.115,1.295,0.269,-16.602,-22.644,-114.746
0.129,1.285,0.240,-15.320,-18.433,-123.230
0.136,1.268,0.200,-13.062,-15.503,-131.165
0.147,1.248,0.173,-10.071,-15.198,-138.367
0.158,1.229,0.160,-8.362,-17.700,-144.470
0.167,1.209,0.148,-8.362,-20.752,-149.780
0.188,1.219,0.150,-11.902,-22.644,-154.175
0.215,1.191,0.148,-18.555,-23.560,-158.875
0.242,1.210,0.169,-25.024,-24.475,-163.269
0.248,1.188,0.185,-32.104,-24.292,-169.250
0.268,1.183,0.207,-38.086,-23.987,-175.781
0.284,1.156,0.221,-42.175,-23.254,-182.556
0.288,1.106,0.228,-43.213,-22.217,-189.941
0.298,1.048,0.241,-42.114,-21.851,-196.960
0.301,0.963,0.242,-38.086,-22.156,-202.026
0.323,0.923,0.249,-30.090,-23.437,-203.491
0.350,0.896,0.243,-20.630,-25.269,-204.956
0.387,0.889,0.234,-12.634,-26.062,-207.031
0.416,0.867,0.220,-8.362,-24.841,-210.999
0.434,0.844,0.214,-7.507,-22.217,-216.553
0.456,0.803,0.214,-8.057,-18.799,-222.290
0.471,0.746,0.210,-8.057,-16.357,-227.356
0.481,0.683,0.200,-7.019,-15.259,-231.079
0.490,0.629,0.197,-4.456,-15.198,-233.765
0.501,0.572,0.192,-0.061,-15.442,-235.474
0.518,0.539,0.187,5.920,-16.174,-236.206
0.530,0.506,0.180,12.512,-16.602,-236.694
0.541,0.447,0.166,18.066,-16.296,-237.244
0.540,0.358,0.157,21.240,-16.418,-236.450
0.554,0.275,0.160,22.156,-15.808,-233.093
0.566,0.194,0.166,21.179,-14.465,-227.417
0.571,0.108,0.168,17.456,-11.841,-219.727
0.592,0.055,0.173,11.108,-7.568,-209.534

-0.025,2.380,-0.140,-20.752,72.205,245.972
-0.041,2.341,-0.149,-8.484,51.453,211.914
-0.041,2.300,-0.207,1.160,41.931,178.467
-0.003,2.252,-0.229,6.165,35.461,143.738
0.026,2.176,-0.199,13.062,30.518,108.154
0.027,2.096,-0.162,22.278,26.489,76.111
0.032,2.047,-0.166,30.579,21.423,50.354
0.039,1.998,-0.180,36.865,12.756,28.687
0.028,1.915,-0.193,40.466,2.014,9.949
0.024,1.828,-0.197,38.269,-5.737,-4.883
0.026,1.746,-0.190,30.945,-10.620,-15.930
0.031,1.672,-0.175,20.630,-14.282,-24.536
0.044,1.606,-0.163,9.766,-16.846,-31.372
0.063,1.553,-0.148,0.488,-18.799,-37.292
0.081,1.501,-0.123,-5.859,-21.729,-43.579
0.099,1.452,-0.101,-9.888,-25.024,-50.598
0.119,1.412,-0.068,-12.817,-28.564,-57.861
0.138,1.377,-0.023,-13.672,-33.386,-65.491
0.144,1.323,0.016,-12.756,-37.720,-73.486
0.147,1.264,0.062,-11.414,-40.344,-81.787
0.154,1.212,0.098,-9.583,-41.138,-88.745
0.162,1.175,0.107,-7.446,-40.344,-93.750
0.172,1.147,0.104,-5.981,-38.940,-97.656
0.190,1.129,0.099,-4.456,-38.818,-100.830
0.207,1.120,0.102,-3.357,-39.429,-104.004
0.230,1.106,0.106,-3.113,-39.612,-107.483
0.240,1.080,0.102,-3.723,-39.856,-111.389
0.249,1.044,0.103,-4.944,-39.856,-114.319
0.256,1.028,0.110,-7.202,-39.185,-116.333
0.284,1.037,0.128,-9.705,-38.940,-116.943
0.315,1.051,0.140,-12.207,-38.818,-117.981
0.341,1.056,0.156,-15.320,-37.903,-120.728
0.357,1.048,0.166,-18.860,-36.011,-124.329
0.367,1.025,0.170,-21.790,-33.386,-127.869
0.385,1.012,0.168,-24.170,-30.884,-130.615
0.403,0.991,0.164,-25.940,-29.297,-133.179
0.417,0.969,0.164,-27.405,-27.832,-135.803
0.441,0.964,0.173,-28.442,-26.245,-138.367
0.459,0.957,0.185,-28.503,-24.902,-141.968
0.471,0.950,0.196,-26.550,-22.827,-146.484
0.482,0.949,0.207,-23.254,-21.057,-151.794
0.498,0.956,0.212,-18.982,-19.653,-157.654
0.503,0.951,0.206,-15.259,-17.944,-164.551
0.501,0.922,0.193,-11.475,-16.113,-172.546
0.498,0.882,0.167,-8.057,-14.709,-180.054
0.491,0.826,0.146,-5.005,-13.977,-186.157
0.496,0.778,0.139,-2.930,-14.099,-190.125
0.515,0.751,0.137,-1.038,-14.832,-192.871
0.528,0.719,0.129,1.099,-15.503,-195.190
0.532,0.683,0.122,2.258,-15.930,-198.425
0.542,0.650,0.111,1.343,-15.503,-201.050
0.546,0.596,0.083,-0.244,-14.587,-203.247
0.537,0.525,0.064,-2.136,-14.832,-205.261
0.537,0.467,0.061,-3.662,-15.991,-205.261
0.549,0.432,0.068,-4.700,-17.456,-203.430
0.554,0.390,0.068,-4.639,-18.860,-201.721
0.557,0.333,0.063,-3.784,-19.775,-200.073
0.565,0.269,0.058,-3.479,-20.203,-197.266
0.583,0.197,0.053,-3.906,-20.325,-193.054
0.598,0.124,0.050,-4.944,-20.203,-187.317

-0.085,2.375,0.064,49.744,44.495,327.026
-0.002,2.512,0.016,38.635,37.109,289.124
0.064,2.565,-0.013,26.978,28.381,245.483
0.116,2.523,0.008,18.555,20.752,199.097
0.197,2.437,0.083,13.306,11.902,157.349
0.120,2.318,0.120,10.742,-0.977,128.296
0.137,2.246,0.103,8.484,-2.319,107.727
0.159,2.246,0.080,4.639,3.174,88.501
0.197,2.217,0.063,1.221,8.606,63.965
0.202,2.116,0.054,5.859,9.460,38.208
0.193,2.021,0.021,11.780,5.371,18.494
0.190,1.941,0.014,15.869,-1.648,2.441
0.177,1.840,0.019,19.836,-9.155,-11.536
0.163,1.741,0.021,19.958,-13.306,-24.658
0.158,1.648,0.022,15.503,-13.794,-36.865
0.145,1.551,0.028,9.583,-14.099,-47.119
0.129,1.448,0.031,4.150,-15.503,-55.054
0.124,1.361,0.044,-0.977,-17.883,-60.303
0.125,1.288,0.061,-4.944,-20.569,-63.538
0.127,1.222,0.083,-8.301,-22.705,-66.528
0.129,1.156,0.097,-11.475,-23.376,-68.604
0.134,1.096,0.108,-14.832,-23.315,-69.641
0.142,1.051,0.126,-17.639,-23.743,-69.397
0.153,1.014,0.140,-19.897,-23.560,-68.481
0.171,1.009,0.156,-21.912,-22.522,-66.956
0.186,1.022,0.169,-23.804,-21.301,-65.430
0.199,1.041,0.174,-24.963,-19.653,-64.697
0.210,1.061,0.178,-25.269,-18.433,-65.430
0.225,1.078,0.181,-24.902,-17.395,-67.139
0.242,1.110,0.165,-24.048,-17.029,-69.824
0.260,1.134,0.141,-23.010,-17.578,-73.181
0.277,1.150,0.127,-22.156,-19.470,-78.186
0.299,1.160,0.129,-21.240,-21.301,-83.801
0.312,1.158,0.143,-21.423,-23.376,-90.210
0.318,1.143,0.152,-21.851,-24.109,-97.168
0.319,1.126,0.164,-22.461,-23.865,-103.516
0.339,1.141,0.174,-23.071,-23.437,-109.131
0.354,1.145,0.166,-24.292,-22.705,-115.051
0.354,1.123,0.154,-25.757,-21.423,-121.887
0.360,1.098,0.144,-27.344,-20.691,-128.418
0.371,1.064,0.144,-28.503,-21.118,-134.338
0.389,1.032,0.147,-29.236,-21.667,-139.648
0.406,1.000,0.149,-29.724,-21.667,-145.020
0.421,0.967,0.151,-29.724,-21.301,-150.696
0.435,0.937,0.171,-28.809,-20.508,-156.372
0.462,0.929,0.181,-27.649,-19.775,-162.109
0.461,0.879,0.171,-26.428,-19.287,-169.067
0.463,0.842,0.170,-22.888,-18.799,-173.584
0.462,0.797,0.162,-19.958,-18.616,-177.856
0.472,0.754,0.152,-16.357,-18.188,-180.603
0.483,0.720,0.143,-12.512,-18.188,-182.678
0.500,0.702,0.133,-8.850,-18.372,-184.692
0.514,0.675,0.118,-6.531,-18.860,-186.646
0.522,0.635,0.109,-4.639,-18.982,-189.209
0.534,0.599,0.101,-3.296,-19.958,-191.406
0.537,0.551,0.098,-2.075,-21.179,-192.383
0.544,0.503,0.096,-1.343,-22.583,-191.956
0.551,0.444,0.085,-0.916,-23.193,-190.613
0.566,0.411,0.098,0.244,-23.621,-188.232
0.588,0.395,0.134,2.747,-24.536,-185.364

-0.941,1.358,0.909,125.732,-18.127,500.793
-0.746,1.887,0.877,84.473,-0.793,514.404
-0.540,2.297,0.744,32.715,29.053,500.549
-0.398,2.596,0.601,-12.878,62.805,465.515
-0.279,2.742,0.430,-45.898,89.355,414.307
-0.179,2.784,0.314,-55.725,98.816,355.591
-0.077,2.770,0.240,-43.335,89.905,295.837
0.014,2.707,0.227,-19.592,70.374,238.464
0.031,2.630,0.217,3.906,50.110,186.951
0.051,2.532,0.177,21.240,40.405,138.794
0.044,2.402,0.142,32.166,36.621,93.933
0.030,2.228,0.119,40.466,34.241,53.284
0.012,2.035,0.094,45.410,31.311,21.912
-0.019,1.903,0.040,46.997,25.635,2.625
-0.014,1.784,0.012,43.030,16.724,-12.756
-0.012,1.690,-0.009,35.095,8.118,-21.790
0.000,1.633,-0.015,22.644,2.075,-27.283
0.019,1.597,-0.009,9.705,-1.953,-32.715
0.037,1.546,-0.004,-0.793,-5.127,-39.978
0.054,1.497,0.009,-8.606,-8.423,-48.828
0.070,1.442,0.026,-14.709,-13.611,-57.800
0.079,1.374,0.051,-17.761,-19.470,-66.772
0.083,1.290,0.074,-18.921,-24.170,-75.684
0.083,1.203,0.095,-19.592,-27.527,-83.862
0.082,1.119,0.118,-20.264,-30.945,-89.478
0.087,1.039,0.140,-20.569,-33.752,-92.773
0.094,0.980,0.167,-21.729,-34.973,-93.994
0.107,0.933,0.190,-23.071,-34.119,-92.773
0.125,0.913,0.208,-24.902,-32.959,-89.783
0.142,0.914,0.226,-26.978,-31.311,-86.060
0.165,0.935,0.243,-28.748,-29.968,-82.458
0.195,0.964,0.251,-31.311,-28.259,-79.529
0.230,1.021,0.259,-33.691,-26.245,-77.820
0.264,1.076,0.263,-35.156,-24.902,-77.942
0.292,1.118,0.266,-36.072,-23.804,-81.299
0.310,1.132,0.259,-36.011,-22.949,-86.731
0.318,1.128,0.252,-34.851,-22.522,-92.651
0.321,1.110,0.247,-33.386,-22.522,-98.389
0.323,1.085,0.242,-31.128,-22.949,-103.333
0.330,1.072,0.234,-29.053,-23.499,-106.750
0.350,1.074,0.222,-28.625,-23.987,-109.192
0.367,1.078,0.217,-30.701,-23.010,-112.427
0.386,1.094,0.215,-34.912,-20.630,-115.906
0.403,1.114,0.216,-39.856,-17.944,-120.178
0.427,1.125,0.221,-44.189,-15.747,-125.366
0.445,1.115,0.216,-47.424,-14.160,-131.226
0.462,1.086,0.214,-49.500,-12.573,-138.062
0.473,1.057,0.214,-49.500,-11.658,-145.386
0.488,1.032,0.209,-46.692,-11.841,-152.649
0.497,0.989,0.197,-42.664,-13.184,-159.851
0.500,0.936,0.184,-37.720,-14.221,-166.626
0.505,0.887,0.179,-33.081,-15.076,-172.607
0.512,0.838,0.179,-28.870,-16.052,-177.612
0.522,0.795,0.177,-25.696,-16.663,-181.274
0.530,0.738,0.169,-24.109,-16.907,-183.960
0.530,0.672,0.160,-23.376,-15.869,-186.340
0.546,0.626,0.151,-23.193,-14.160,-186.829
0.554,0.575,0.147,-23.254,-12.939,-186.523
0.563,0.518,0.149,-22.949,-12.390,-185.059
0.574,0.471,0.155,-22.583,-11.047,-182.312

-1.199,1.456,1.044,106.628,-7.507,588.745
-0.973,2.148,1.049,110.962,7.629,589.539
-0.600,2.758,0.848,98.816,18.921,569.214
-0.405,3.163,0.491,69.763,29.419,524.658
-0.146,3.272,0.174,25.208,42.175,455.261
-0.135,3.197,0.119,-15.869,40.833,381.653
-0.032,3.014,0.222,-41.443,41.809,339.783
-0.126,3.124,0.050,-54.749,48.889,303.223
0.020,3.109,0.067,-62.744,39.978,214.417
0.139,2.850,0.263,-44.312,17.761,127.014
0.098,2.561,0.396,-15.137,2.869,67.200
0.065,2.360,0.444,2.686,-3.479,25.696
0.031,2.158,0.400,15.991,-3.174,-4.333
-0.003,1.969,0.321,26.001,-1.831,-26.611
-0.011,1.814,0.237,29.907,0.122,-44.067
-0.016,1.684,0.161,28.198,2.625,-57.129
-0.006,1.595,0.094,21.790,4.700,-66.772
0.001,1.492,0.036,12.634,4.883,-74.768
0.013,1.443,0.012,4.822,1.587,-80.627
0.045,1.400,0.011,-0.732,-3.784,-85.205
0.071,1.356,0.020,-4.883,-9.949,-92.041
0.093,1.306,0.049,-9.277,-15.503,-99.731
0.113,1.245,0.090,-14.648,-19.775,-107.971
0.132,1.187,0.140,-19.592,-22.400,-114.807
0.146,1.127,0.186,-23.315,-24.536,-120.544
0.157,1.079,0.234,-25.879,-25.635,-125.061
0.178,1.058,0.278,-27.893,-25.696,-127.441
0.211,1.068,0.309,-30.396,-24.170,-128.906
0.240,1.084,0.320,-33.447,-20.752,-130.920
0.254,1.072,0.310,-36.255,-16.113,-133.972
0.270,1.059,0.293,-37.292,-12.329,-137.512
0.298,1.057,0.281,-36.255,-10.803,-140.381
0.320,1.047,0.279,-33.875,-11.169,-143.860
0.338,1.044,0.289,-32.532,-11.719,-147.400
0.362,1.058,0.302,-32.898,-10.681,-151.184
0.371,1.040,0.301,-34.363,-8.057,-157.349
0.380,1.003,0.315,-35.889,-4.028,-163.818
0.388,0.991,0.321,-36.621,0.305,-166.199
0.407,1.002,0.312,-36.743,3.418,-167.847
0.423,0.985,0.285,-35.278,5.432,-171.143
0.441,0.969,0.256,-33.569,6.775,-175.415
0.458,0.941,0.226,-32.166,8.057,-180.542
0.464,0.893,0.199,-30.518,9.155,-187.073
0.467,0.856,0.174,-27.405,8.789,-193.359
0.494,0.817,0.155,-24.048,6.653,-200.317
0.506,0.805,0.161,-19.531,2.686,-206.482
0.521,0.803,0.161,-15.991,0.183,-210.144
0.543,0.780,0.159,-15.076,-1.709,-215.820
0.530,0.727,0.140,-14.648,-3.235,-221.619
0.517,0.655,0.135,-13.916,-4.517,-226.501
0.529,0.611,0.154,-13.611,-4.211,-230.042
0.542,0.586,0.166,-11.230,-3.906,-232.849
0.549,0.563,0.145,-5.432,-3.845,-236.084
0.539,0.532,0.113,0.793,-6.104,-240.601
0.533,0.498,0.097,7.263,-10.315,-245.239
0.560,0.531,0.137,12.939,-15.198,-250.183
0.566,0.547,0.177,18.555,-19.104,-258.728
0.510,0.424,0.177,24.597,-20.020,-271.667
0.464,0.221,0.135,28.564,-16.541,-281.677
0.412,0.022,0.076,30.640,-11.047,-285.767

-0.680,1.801,1.008,77.087,-14.099,547.852
-0.322,2.373,1.144,59.814,-13.916,547.791
-0.431,2.700,0.957,40.955,-12.268,535.767
-0.286,2.862,0.432,-6.958,35.583,488.953
-0.133,2.978,0.053,-84.717,84.717,424.011
-0.033,2.890,-0.225,-148.010,120.728,351.746
0.084,2.695,-0.283,-173.584,128.967,287.170
0.019,2.731,-0.204,-159.973,113.281,257.019
0.059,2.829,-0.165,-123.291,76.782,211.670
0.214,2.814,0.022,-71.472,34.363,143.372
0.215,2.614,0.158,-10.376,9.155,81.360
0.166,2.416,0.165,27.588,2.686,27.039
0.127,2.219,0.098,52.551,5.615,-14.465
0.093,2.024,-0.006,70.129,6.897,-46.082
0.053,1.838,-0.099,78.369,3.479,-66.101
0.009,1.693,-0.176,74.585,-3.601,-76.233
0.012,1.552,-0.206,60.608,-10.437,-84.045
0.024,1.427,-0.206,41.870,-13.855,-89.233
0.042,1.360,-0.189,20.081,-15.381,-89.355
0.074,1.324,-0.145,-0.732,-19.470,-88.135
0.104,1.291,-0.077,-15.381,-26.550,-88.135
0.126,1.243,0.008,-25.085,-31.799,-91.492
0.148,1.194,0.092,-32.043,-34.363,-95.764
0.178,1.160,0.161,-36.865,-34.607,-99.060
0.182,1.122,0.198,-38.391,-34.241,-102.600
0.230,1.065,0.222,-37.964,-33.691,-107.483
0.246,1.001,0.248,-35.095,-31.860,-110.779
0.265,1.003,0.241,-32.166,-29.602,-109.741
0.286,0.982,0.213,-29.724,-27.649,-110.779
0.301,0.973,0.188,-26.672,-26.367,-111.206
0.318,0.970,0.177,-24.658,-26.794,-111.572
0.342,0.980,0.183,-23.376,-27.100,-112.610
0.364,0.982,0.179,-22.766,-27.039,-114.197
0.382,0.972,0.174,-22.278,-26.733,-116.699
0.398,0.962,0.175,-21.667,-26.855,-119.080
0.414,0.947,0.174,-20.874,-27.588,-120.972
0.425,0.925,0.177,-19.470,-29.297,-123.108
