aX,aY,aZ,gX,gY,gZ
0.928,1.708,-0.007,-77.515,33.020,-40.649
0.656,1.736,-0.111,-62.927,32.959,-80.688
0.649,1.876,-0.169,-50.903,26.794,-115.051
0.497,1.848,-0.272,-42.725,20.203,-153.320
0.249,1.841,-0.286,-52.368,14.221,-198.181
0.029,1.772,-0.277,-63.904,2.563,-240.601
-0.153,1.685,-0.237,-73.364,-14.221,-282.776
-0.333,1.502,-0.138,-81.482,-34.851,-330.139
-0.480,1.349,-0.026,-78.613,-53.772,-375.366
-0.642,1.202,0.061,-64.392,-66.895,-423.157
-0.823,1.023,0.102,-46.204,-74.463,-472.839
-0.980,0.804,0.137,-33.447,-77.515,-518.066
-1.120,0.598,0.167,-24.292,-79.712,-555.176
-1.160,0.355,0.136,-10.437,-83.801,-588.623
-1.253,0.006,0.456,9.277,-101.929,-629.944
-1.411,-0.305,0.781,45.776,-135.132,-680.664
-1.536,-0.472,0.822,113.281,-147.156,-727.051
-1.816,-0.938,0.671,183.228,-126.892,-763.794
-2.112,-1.724,0.441,191.162,-90.637,-762.329
-2.202,-2.270,0.292,137.146,-44.067,-694.031
-2.065,-2.781,0.364,75.378,-5.127,-591.736
-2.425,-3.360,0.315,13.977,18.127,-476.013
-2.263,-3.594,0.391,-52.246,54.321,-342.346
-2.069,-3.552,0.308,-95.398,83.374,-214.966
-1.862,-3.395,0.098,-109.497,95.459,-115.601
-1.616,-3.155,-0.100,-109.314,92.285,-44.983
-1.326,-2.876,-0.229,-96.802,75.073,-1.892
-1.057,-2.646,-0.334,-67.139,46.875,15.991
-0.825,-2.474,-0.425,-30.273,15.625,18.860
-0.644,-2.379,-0.483,-0.793,-10.437,18.738
-0.511,-2.325,-0.501,15.320,-28.503,25.757
-0.412,-2.248,-0.480,21.362,-37.598,43.396
-0.344,-2.143,-0.421,22.949,-40.649,68.176
-0.307,-2.027,-0.328,22.705,-39.795,92.590
-0.269,-1.927,-0.254,23.071,-38.391,111.694
-0.247,-1.819,-0.219,27.100,-38.940,125.183
-0.212,-1.741,-0.187,30.457,-42.236,133.667
-0.204,-1.703,-0.126,29.175,-47.424,139.648
-0.205,-1.670,-0.046,26.245,-52.856,149.475
-0.215,-1.652,0.033,23.254,-56.641,163.574
-0.242,-1.643,0.110,18.921,-58.716,180.969
-0.258,-1.599,0.178,12.451,-56.885,202.576
-0.267,-1.530,0.231,5.371,-52.490,224.731
-0.284,-1.476,0.277,0.671,-46.936,244.202
-0.278,-1.411,0.293,-3.418,-40.588,262.939
-0.265,-1.309,0.269,-6.042,-31.921,282.227
-0.240,-1.181,0.248,-6.470,-24.658,300.476
-0.207,-1.068,0.235,-8.423,-18.433,315.430
-0.176,-0.991,0.238,-14.465,-13.916,325.317
-0.136,-0.905,0.235,-21.790,-11.597,333.069
-0.076,-0.794,0.239,-25.757,-8.667,339.172
-0.030,-0.680,0.230,-25.208,-5.981,342.346
0.014,-0.584,0.197,-21.484,-2.808,341.919
0.048,-0.499,0.167,-19.775,0.427,340.027
0.091,-0.429,0.141,-20.386,2.625,338.013
0.128,-0.366,0.129,-23.193,3.479,335.693
0.176,-0.291,0.133,-27.954,4.211,333.191
0.218,-0.241,0.133,-31.067,3.662,328.125
0.259,-0.229,0.150,-29.785,3.784,321.594
0.285,-0.208,0.161,-23.132,3.967,316.284

-0.852,1.843,-0.221,-76.294,76.477,-487.488
-1.190,1.648,-0.344,-47.852,63.232,-575.439
-1.473,1.368,-0.495,-22.522,44.617,-648.315
-1.676,1.040,-0.618,-15.076,14.404,-699.341
-1.810,0.718,-0.607,-17.212,-28.015,-731.445
-1.903,0.370,-0.347,-13.794,-78.674,-756.470
-2.163,-0.118,0.139,6.104,-129.700,-787.354
-2.456,-1.079,0.707,23.865,-156.677,-811.890
-2.585,-1.767,1.158,31.250,-147.644,-788.879
-2.606,-2.219,1.272,60.181,-99.854,-730.347
-2.827,-2.875,0.993,103.333,-44.373,-665.222
-2.991,-3.566,0.777,101.685,3.662,-581.848
-2.926,-3.999,0.482,58.350,41.931,-468.384
-2.745,-4.000,0.081,20.508,71.228,-336.975
-2.471,-3.961,-0.216,-10.559,76.355,-207.153
-2.080,-3.562,-0.274,-43.457,59.265,-95.398
-1.673,-3.082,-0.231,-63.232,38.513,-12.329
-1.258,-2.631,-0.288,-60.974,22.522,39.612
-0.896,-2.260,-0.446,-46.692,9.949,69.641
-0.586,-1.974,-0.564,-38.757,-0.366,86.548
-0.348,-1.749,-0.607,-36.560,-8.423,94.604
-0.191,-1.596,-0.570,-33.691,-15.869,95.642
-0.088,-1.484,-0.491,-27.771,-23.254,89.905
-0.044,-1.423,-0.397,-19.409,-29.846,79.651
-0.026,-1.396,-0.307,-9.460,-33.752,69.885
-0.042,-1.377,-0.236,0.671,-37.415,61.218
-0.082,-1.367,-0.154,9.460,-41.687,55.115
-0.119,-1.345,-0.038,13.672,-45.715,53.040
-0.166,-1.328,0.080,15.808,-46.326,53.284
-0.217,-1.328,0.153,18.005,-43.030,55.725
-0.264,-1.324,0.189,19.104,-37.659,62.134
-0.290,-1.300,0.194,18.433,-32.288,70.618
-0.307,-1.277,0.196,16.724,-28.748,80.322
-0.316,-1.243,0.203,15.686,-26.245,88.318
-0.312,-1.207,0.188,17.395,-24.658,95.093
-0.302,-1.160,0.178,20.630,-23.926,100.891
-0.294,-1.141,0.175,23.743,-23.804,105.652
-0.285,-1.146,0.172,24.841,-22.583,109.985
-0.277,-1.151,0.161,23.987,-20.508,116.211
-0.272,-1.167,0.151,23.499,-17.090,123.840
-0.267,-1.198,0.145,21.667,-13.184,132.446
-0.279,-1.226,0.128,18.250,-8.545,143.616
-0.275,-1.254,0.115,14.954,-4.028,157.288
-0.263,-1.273,0.095,13.000,-0.854,171.875
-0.255,-1.277,0.079,12.207,0.427,185.120
-0.231,-1.268,0.087,10.254,0.793,197.327
-0.217,-1.261,0.086,6.287,1.709,210.022
-0.180,-1.232,0.079,0.793,6.409,223.328
-0.152,-1.176,0.066,-3.784,12.451,237.976
-0.112,-1.138,0.050,-7.629,16.663,252.075
-0.090,-1.124,-0.002,-11.169,16.113,264.465
-0.054,-1.076,-0.064,-15.381,14.038,275.391
-0.024,-1.022,-0.042,-25.879,18.005,283.142
-0.008,-0.986,-0.016,-34.119,19.409,291.077
0.013,-0.998,-0.004,-39.856,18.494,298.340
0.038,-1.013,0.032,-48.645,19.531,306.702
0.058,-1.015,0.016,-58.716,22.705,322.693
0.071,-0.980,0.025,-68.115,29.236,342.529
0.106,-0.879,0.037,-73.364,36.133,362.366
0.118,-0.770,0.044,-73.425,41.748,378.967

-0.807,1.434,-0.480,-35.339,-45.471,-456.665
-0.988,1.344,-0.468,-32.776,-57.556,-512.512
-1.169,1.244,-0.424,-29.480,-76.782,-569.031
-1.330,1.148,-0.349,-18.982,-99.426,-623.901
-1.457,0.984,-0.243,1.282,-124.634,-677.185
-1.658,0.693,-0.113,31.128,-154.419,-731.689
-1.978,0.034,0.188,50.049,-178.040,-777.222
-2.287,-0.980,0.731,24.780,-192.078,-789.246
-2.387,-1.932,1.211,-23.437,-192.749,-742.065
-2.301,-2.590,1.859,-30.457,-156.433,-641.602
-2.287,-3.212,2.154,-0.854,-86.548,-544.617
-2.355,-3.871,1.673,5.005,-6.531,-459.229
-2.267,-4.000,1.055,-30.823,56.213,-360.901
-2.052,-4.000,0.660,-67.871,77.698,-254.883
-1.785,-4.000,0.513,-77.698,65.002,-167.358
-1.510,-3.819,0.387,-59.814,37.720,-109.680
-1.194,-3.421,0.185,-32.104,11.841,-69.702
-0.815,-3.012,-0.073,-13.428,-7.385,-36.194
-0.463,-2.652,-0.315,-7.202,-20.569,-5.737
-0.183,-2.320,-0.446,-9.033,-27.649,24.536
0.011,-2.008,-0.443,-12.695,-32.715,49.927
0.145,-1.759,-0.344,-13.611,-37.964,63.477
0.208,-1.561,-0.214,-7.141,-40.039,63.171
0.251,-1.455,-0.123,6.348,-40.588,54.382
0.227,-1.414,-0.023,21.667,-41.321,41.748
0.167,-1.391,0.088,35.706,-40.771,29.602
0.092,-1.401,0.201,47.791,-40.100,22.705
0.006,-1.439,0.287,52.856,-37.048,20.691
-0.081,-1.485,0.356,50.171,-29.602,26.489
-0.153,-1.506,0.380,42.969,-20.508,38.147
-0.210,-1.498,0.365,34.241,-11.536,54.321
-0.249,-1.462,0.346,26.550,-5.310,70.862
-0.275,-1.417,0.380,21.790,-3.296,84.473
-0.295,-1.377,0.425,23.010,-2.747,93.872
-0.281,-1.387,0.398,29.785,-0.732,101.135
-0.288,-1.395,0.351,34.119,2.014,108.643
-0.286,-1.400,0.297,32.593,3.601,119.446
-0.282,-1.413,0.258,27.954,5.188,134.949
-0.270,-1.401,0.249,21.667,7.263,152.710
-0.248,-1.365,0.253,15.686,9.216,169.189
-0.216,-1.333,0.259,13.489,10.498,182.556
-0.181,-1.313,0.240,15.198,11.658,192.200
-0.153,-1.307,0.207,17.212,11.597,201.172
-0.136,-1.297,0.184,17.151,12.695,213.806
-0.110,-1.284,0.171,14.099,14.465,228.088
-0.076,-1.246,0.146,10.315,16.602,243.958
-0.041,-1.191,0.117,6.165,20.020,258.057
-0.050,-1.111,0.101,1.709,23.132,269.775
-0.026,-1.075,0.090,-2.991,26.001,280.579
0.013,-1.008,0.071,-9.277,26.611,291.199
0.058,-0.938,0.057,-17.090,26.489,299.194
0.095,-0.876,0.050,-26.123,25.330,305.664
0.130,-0.847,0.087,-33.936,24.902,310.669
0.161,-0.789,0.120,-37.903,24.414,314.026
0.195,-0.727,0.134,-35.889,25.146,316.162
0.221,-0.665,0.157,-32.166,26.306,317.871
0.231,-0.578,0.150,-29.785,27.344,318.420
0.252,-0.519,0.143,-28.992,30.579,317.810
0.285,-0.443,0.138,-28.625,31.372,315.674
0.323,-0.367,0.114,-25.085,32.166,312.683

-1.921,-2.255,0.276,43.701,-162.292,-687.195
-1.935,-2.886,0.476,-25.879,-151.184,-585.937
-1.855,-3.250,1.009,-72.021,-126.709,-460.449
-1.616,-3.392,1.601,-75.256,-93.567,-352.600
-1.430,-3.480,1.615,-32.227,-51.514,-278.931
-1.344,-3.525,1.174,14.832,-7.996,-227.112
-1.245,-3.474,0.687,28.198,23.010,-174.927
-1.051,-3.312,0.333,13.367,31.860,-114.807
-0.801,-3.015,0.209,-7.996,22.522,-53.284
-0.540,-2.651,0.174,-18.433,8.667,-2.625
-0.312,-2.312,0.089,-14.282,-0.061,33.630
-0.105,-1.996,-0.042,-7.446,-3.662,59.204
0.025,-1.740,-0.142,-6.226,-4.150,74.036
0.124,-1.542,-0.190,-8.179,-3.357,81.970
0.199,-1.415,-0.188,-9.827,-3.967,84.778
0.276,-1.336,-0.166,-8.362,-5.127,82.642
0.339,-1.301,-0.115,-3.845,-8.057,77.148
0.380,-1.289,-0.032,2.380,-11.536,69.885
0.380,-1.301,0.059,10.437,-14.221,63.843
0.345,-1.328,0.152,19.165,-15.808,59.692
0.295,-1.367,0.233,25.574,-15.869,59.021
0.236,-1.392,0.302,29.053,-13.733,63.049
0.173,-1.407,0.345,30.457,-9.033,69.824
0.119,-1.404,0.374,29.907,-5.066,77.759
0.095,-1.394,0.392,28.442,-2.441,85.205
0.090,-1.370,0.388,26.001,0.122,92.773
0.103,-1.328,0.395,23.193,1.709,100.220
0.118,-1.277,0.404,20.447,3.357,107.361
0.126,-1.229,0.415,19.104,6.897,113.525
0.130,-1.181,0.419,19.897,11.597,117.920
0.144,-1.138,0.401,22.644,16.968,120.667
0.153,-1.083,0.349,26.062,21.362,121.704
0.157,-1.038,0.313,30.762,25.024,121.643
0.169,-1.025,0.263,34.241,27.405,121.765
0.170,-1.014,0.197,31.738,28.503,123.718
0.185,-1.008,0.158,24.719,29.419,128.479
0.197,-1.015,0.133,17.334,29.724,135.681
0.203,-1.022,0.143,12.207,28.870,142.151
0.214,-1.029,0.176,11.292,27.527,147.705
0.229,-1.049,0.198,14.221,27.283,151.978
0.245,-1.055,0.187,16.846,28.503,156.555
0.256,-1.059,0.162,17.944,30.396,162.537
0.266,-1.078,0.109,17.761,33.325,171.143
0.255,-1.102,0.064,14.160,35.583,181.885
0.251,-1.084,0.051,6.104,35.828,195.374
0.257,-1.039,0.049,-2.319,34.729,209.961
0.273,-0.988,0.043,-8.423,35.583,223.267
0.287,-0.907,0.040,-13.550,36.682,233.704
0.315,-0.856,0.050,-13.977,39.063,239.868
0.341,-0.814,0.060,-12.207,38.818,241.577
0.368,-0.745,0.048,-9.155,37.781,241.089
0.386,-0.705,0.041,-4.944,37.109,239.197
0.419,-0.650,0.027,-1.404,35.767,240.906
0.443,-0.576,0.004,0.000,34.241,244.141
0.445,-0.511,0.015,-0.793,32.410,248.535
0.484,-0.447,0.026,-5.188,28.320,254.822
0.524,-0.382,0.067,-7.263,26.062,262.512
0.547,-0.272,0.111,-8.728,25.269,269.470
0.570,-0.163,0.110,-6.470,29.602,273.254
0.595,-0.063,0.116,-2.747,35.156,275.024

-0.521,-1.754,1.472,-216.125,-116.333,-324.768
-0.402,-1.889,1.764,-211.670,-74.158,-268.494
-0.304,-1.995,1.777,-154.297,-42.908,-244.629
-0.281,-2.153,1.531,-79.895,-32.166,-249.634
-0.320,-2.375,1.274,-17.883,-33.813,-258.179
-0.371,-2.610,1.110,16.968,-41.870,-249.146
-0.365,-2.782,1.058,19.409,-44.006,-213.013
-0.307,-2.813,1.036,-5.066,-32.043,-154.480
-0.223,-2.690,0.994,-35.461,-9.949,-90.759
-0.126,-2.493,0.830,-53.162,9.705,-36.621
0.003,-2.271,0.648,-54.260,17.334,-0.854
0.116,-2.089,0.485,-41.748,14.160,19.348
0.221,-1.899,0.350,-22.766,6.165,33.081
0.313,-1.709,0.265,-6.714,-2.747,41.748
0.403,-1.547,0.211,3.052,-9.460,47.974
0.471,-1.417,0.203,7.202,-14.038,52.368
0.515,-1.290,0.231,10.010,-17.273,54.626
0.541,-1.203,0.276,13.367,-20.020,54.260
0.559,-1.161,0.353,16.235,-22.339,51.758
0.561,-1.130,0.460,20.874,-23.010,48.401
0.546,-1.106,0.536,30.579,-20.996,44.373
0.525,-1.107,0.587,42.053,-16.907,39.673
0.501,-1.116,0.631,49.927,-12.329,35.522
0.477,-1.115,0.627,53.894,-6.897,34.485
0.448,-1.133,0.639,53.284,-1.099,36.682
0.420,-1.152,0.662,49.500,4.822,40.527
0.388,-1.176,0.670,48.889,10.742,44.983
0.362,-1.200,0.661,52.429,16.052,48.950
0.339,-1.230,0.655,57.861,19.775,53.345
0.322,-1.263,0.655,65.002,23.315,58.289
0.302,-1.297,0.647,75.684,28.992,65.613
0.274,-1.313,0.613,89.722,36.011,75.317
0.249,-1.300,0.548,103.333,43.762,87.402
0.238,-1.266,0.472,110.779,49.438,101.257
0.217,-1.222,0.408,110.840,52.185,114.014
0.213,-1.192,0.354,107.788,52.063,125.305
0.227,-1.167,0.303,106.384,50.476,136.169
0.236,-1.125,0.265,105.469,45.837,144.531
0.242,-1.083,0.240,105.652,40.283,151.001
0.261,-1.067,0.229,106.628,34.851,156.555
0.280,-1.023,0.205,107.117,30.151,162.231
0.297,-0.969,0.182,106.567,27.161,167.725
0.314,-0.907,0.172,104.797,25.513,172.913
0.333,-0.843,0.154,100.647,23.560,176.697
0.342,-0.803,0.123,95.642,23.010,180.054
0.349,-0.773,0.112,88.562,23.560,184.814
0.357,-0.764,0.091,81.665,25.146,191.406
0.361,-0.742,0.069,76.111,26.367,199.341
0.378,-0.692,0.048,74.829,27.893,207.092
0.399,-0.616,0.009,77.026,28.625,213.440
0.422,-0.569,-0.009,79.529,27.649,217.590
0.445,-0.498,-0.010,79.468,23.010,219.421
0.470,-0.425,-0.002,79.346,18.921,219.055
0.494,-0.375,0.000,79.285,16.113,216.919
0.511,-0.340,0.000,81.360,15.442,214.600
0.525,-0.304,-0.001,84.045,14.099,210.693
0.555,-0.255,-0.008,89.050,14.709,206.848
0.579,-0.183,-0.027,95.337,15.442,203.735
0.605,-0.107,-0.023,99.670,15.076,199.951
0.638,0.001,-0.016,103.027,14.038,195.679

-1.333,-1.447,1.141,25.635,-191.284,-573.914
-1.398,-2.187,1.293,28.992,-162.720,-560.852
-1.457,-3.034,1.508,-14.893,-117.310,-508.606
-1.474,-3.713,1.676,-83.008,-58.411,-412.292
-1.320,-4.000,1.665,-135.437,5.005,-283.325
-1.022,-3.936,1.442,-158.875,52.979,-160.767
-0.778,-3.660,1.162,-159.485,70.679,-78.308
-0.565,-3.376,0.942,-139.832,62.927,-35.034
-0.364,-3.067,0.767,-100.769,38.940,-16.479
-0.161,-2.788,0.551,-49.744,13.611,-10.071
0.043,-2.543,0.280,-5.859,-1.404,-6.287
0.207,-2.323,0.035,15.808,-5.920,0.732
0.313,-2.104,-0.123,18.066,-3.784,15.198
0.390,-1.909,-0.213,13.855,-0.671,34.912
0.434,-1.702,-0.220,9.094,-0.305,51.086
0.457,-1.542,-0.178,8.850,-2.625,58.960
0.454,-1.435,-0.109,14.099,-5.920,57.861
0.430,-1.376,-0.030,22.888,-9.216,51.880
0.382,-1.350,0.050,33.447,-12.512,43.945
0.328,-1.353,0.113,43.518,-16.174,37.292
0.269,-1.372,0.182,50.293,-19.897,34.119
0.208,-1.410,0.268,51.086,-22.827,34.912
0.159,-1.446,0.353,47.607,-24.109,39.978
0.118,-1.445,0.424,43.579,-22.949,49.072
0.089,-1.417,0.458,41.504,-18.188,60.974
0.062,-1.369,0.461,41.077,-12.329,72.693
0.045,-1.313,0.445,39.734,-7.996,82.214
0.037,-1.258,0.424,38.757,-4.700,89.905
0.040,-1.204,0.391,40.710,-2.014,95.459
0.038,-1.187,0.357,44.189,-0.488,98.450
0.044,-1.179,0.333,47.607,-0.061,100.586
0.047,-1.188,0.314,52.490,0.183,103.210
0.059,-1.191,0.289,58.228,-0.488,106.079
0.068,-1.206,0.255,64.392,-0.549,110.840
0.081,-1.208,0.241,67.871,-1.343,117.310
0.098,-1.203,0.223,69.946,-1.465,125.671
0.120,-1.171,0.204,68.970,-1.404,137.268
0.141,-1.119,0.187,65.552,0.793,150.940
0.159,-1.085,0.187,59.753,1.282,162.720
0.185,-1.051,0.189,54.688,0.732,171.387
0.213,-1.038,0.171,49.988,-0.305,180.359
0.234,-0.996,0.155,44.800,0.488,191.528
0.260,-0.928,0.142,39.673,2.014,201.111
0.280,-0.866,0.148,35.034,4.150,208.557
0.305,-0.803,0.149,30.090,6.470,211.731
0.327,-0.771,0.135,27.222,10.681,212.158
0.339,-0.753,0.127,24.963,12.756,209.900
0.356,-0.764,0.126,25.024,13.855,206.604
0.374,-0.751,0.120,27.344,12.817,203.979
0.392,-0.712,0.103,32.715,11.108,203.369
0.414,-0.662,0.093,38.025,9.277,204.651
0.430,-0.612,0.076,42.358,9.277,207.642
0.439,-0.545,0.063,42.908,9.399,211.365
0.457,-0.469,0.052,42.114,10.620,214.783
0.474,-0.407,0.059,42.114,11.902,216.187
0.490,-0.347,0.071,42.603,11.902,215.027
0.525,-0.276,0.076,43.518,13.000,210.205
0.559,-0.194,0.062,46.875,13.245,203.979
0.598,-0.105,0.018,52.612,14.343,199.524
0.648,-0.004,-0.026,57.617,15.381,197.632

-1.291,-2.151,0.612,-109.680,-94.543,-459.167
-1.253,-2.536,1.062,-155.701,-77.698,-385.254
-1.106,-2.658,1.343,-147.583,-52.429,-313.843
-0.980,-2.677,1.333,-91.736,-26.733,-267.822
-0.999,-2.872,1.180,-30.762,-6.531,-250.793
-1.031,-3.091,0.966,-2.502,7.080,-232.727
-0.991,-3.255,0.776,-2.991,18.616,-193.787
-0.889,-3.261,0.651,-15.808,22.827,-140.930
-0.720,-3.100,0.528,-24.780,20.386,-84.351
-0.547,-2.836,0.394,-25.513,14.954,-34.241
-0.376,-2.526,0.245,-22.156,8.911,2.991
-0.199,-2.239,0.089,-17.334,3.906,29.724
-0.030,-1.974,-0.052,-12.329,-0.061,50.232
0.098,-1.732,-0.152,-8.484,-4.333,64.819
0.190,-1.533,-0.197,-5.493,-8.728,73.486
0.258,-1.370,-0.193,-3.296,-13.977,75.806
0.309,-1.255,-0.161,-0.793,-20.386,72.083
0.339,-1.193,-0.093,2.869,-27.100,64.026
0.336,-1.197,0.012,8.118,-33.203,52.856
0.298,-1.232,0.118,16.113,-37.354,41.809
0.248,-1.297,0.218,26.184,-38.330,33.691
0.203,-1.331,0.290,35.522,-37.354,29.907
0.157,-1.346,0.327,41.077,-33.325,31.921
0.116,-1.357,0.342,40.833,-26.123,39.063
0.079,-1.345,0.349,34.302,-19.531,49.133
0.044,-1.336,0.349,26.733,-13.977,60.120
0.010,-1.316,0.358,22.339,-9.399,69.946
-0.010,-1.285,0.348,21.973,-8.301,76.355
-0.026,-1.267,0.328,26.306,-7.507,80.505
-0.033,-1.255,0.316,31.006,-9.338,82.336
-0.035,-1.247,0.299,36.011,-11.169,83.740
-0.026,-1.246,0.285,41.443,-12.390,86.182
-0.031,-1.264,0.277,44.922,-13.367,90.088
-0.014,-1.269,0.256,44.006,-13.794,97.412
-0.013,-1.279,0.251,40.894,-12.756,107.788
-0.008,-1.297,0.267,38.025,-12.024,117.981
0.004,-1.303,0.264,38.879,-13.000,127.563
0.022,-1.288,0.241,42.603,-14.282,138.855
0.048,-1.238,0.222,44.861,-13.550,151.367
0.072,-1.182,0.204,45.166,-13.123,162.964
0.094,-1.130,0.194,44.373,-12.634,172.607
0.113,-1.088,0.187,42.725,-12.634,179.932
0.142,-1.083,0.180,41.382,-12.512,186.646
0.152,-1.058,0.183,38.330,-12.878,191.956
0.177,-1.044,0.179,35.706,-11.841,197.937
0.199,-1.018,0.175,32.471,-9.277,205.383
0.209,-0.991,0.187,28.076,-7.568,211.731
0.234,-1.011,0.223,25.574,-5.066,215.515
0.251,-0.987,0.233,25.879,-5.127,216.919
0.274,-0.932,0.204,31.616,-3.174,218.933
0.299,-0.860,0.157,37.842,0.610,221.436
0.307,-0.803,0.121,41.626,3.723,221.863
0.323,-0.761,0.112,43.396,4.150,219.971
0.320,-0.740,0.108,44.861,2.136,215.210
0.335,-0.700,0.090,44.312,0.732,211.914
0.356,-0.646,0.083,43.396,2.258,211.609
0.396,-0.563,0.078,45.654,4.761,213.440
0.458,-0.440,0.042,52.246,5.676,219.543
0.511,-0.301,0.025,58.777,3.967,227.661
0.554,-0.139,0.012,61.218,0.183,236.206

-1.268,-1.879,0.697,-73.181,-149.536,-501.038
-1.278,-2.486,1.057,-86.792,-131.348,-453.552
-1.219,-2.931,1.245,-95.581,-101.624,-390.808
-1.137,-3.200,1.236,-98.022,-66.223,-321.594
-0.984,-3.314,1.160,-95.398,-38.818,-248.352
-0.809,-3.292,1.102,-91.919,-28.076,-186.523
-0.611,-3.150,0.985,-84.229,-29.114,-136.719
-0.436,-2.937,0.904,-71.960,-30.396,-95.520
-0.287,-2.691,0.832,-55.237,-30.212,-64.758
-0.132,-2.463,0.726,-32.104,-30.396,-45.227
-0.001,-2.256,0.570,-5.859,-27.771,-32.654
0.107,-2.069,0.390,16.663,-23.010,-22.217
0.205,-1.933,0.227,30.334,-19.226,-12.573
0.287,-1.821,0.124,34.546,-16.724,-1.770
0.343,-1.717,0.078,31.982,-14.771,10.132
0.359,-1.631,0.078,27.344,-12.939,22.217
0.359,-1.578,0.097,21.240,-9.460,32.654
0.344,-1.538,0.125,14.771,-5.920,41.016
0.315,-1.523,0.158,11.108,-3.723,47.729
0.279,-1.523,0.211,12.207,-2.808,52.979
0.240,-1.523,0.254,18.860,-3.418,57.434
0.188,-1.528,0.292,28.870,-3.357,62.317
0.142,-1.550,0.336,37.170,-4.333,66.956
0.100,-1.555,0.367,42.236,-5.066,72.998
0.072,-1.560,0.383,46.448,-2.686,82.947
0.052,-1.523,0.365,50.903,1.282,95.154
0.059,-1.465,0.311,53.467,3.479,107.849
0.062,-1.393,0.285,51.880,4.883,120.911
0.078,-1.329,0.290,46.509,4.150,132.202
0.096,-1.265,0.299,43.091,4.333,142.395
0.119,-1.179,0.294,42.786,3.662,149.902
0.131,-1.131,0.294,46.326,4.272,154.480
0.149,-1.095,0.303,49.988,4.333,156.372
0.181,-1.068,0.290,53.833,5.310,158.508
0.187,-1.036,0.280,57.983,8.362,162.109
0.197,-1.040,0.258,59.692,10.986,164.856
0.211,-1.033,0.207,59.082,12.878,169.617
0.209,-1.017,0.170,55.359,13.062,177.246
0.225,-1.012,0.147,48.645,12.939,186.401
0.239,-0.989,0.142,41.199,11.475,196.289
0.253,-0.958,0.155,34.790,9.705,206.299
0.274,-0.905,0.163,30.334,10.986,215.942
0.300,-0.844,0.139,26.794,14.038,222.412
0.314,-0.771,0.124,22.522,17.578,226.257
0.334,-0.727,0.110,18.738,22.461,227.356
0.349,-0.698,0.106,15.564,24.536,226.318
0.370,-0.685,0.121,16.235,25.452,225.037
0.388,-0.668,0.115,20.325,25.574,223.022
0.405,-0.640,0.074,26.794,25.818,222.412
0.411,-0.606,0.057,31.372,25.757,223.511
0.419,-0.557,0.041,32.410,24.414,226.196
0.446,-0.496,0.027,31.921,24.536,230.103
0.480,-0.395,0.019,31.067,24.536,234.497
0.501,-0.259,-0.005,32.288,26.184,240.173
0.520,-0.096,-0.055,31.860,27.649,247.253
0.546,0.069,-0.097,26.123,27.283,253.357
0.592,0.265,-0.134,15.137,26.062,257.263
0.641,0.456,-0.121,1.709,20.508,253.418
0.686,0.609,-0.124,-9.399,13.062,238.220
0.766,0.709,-0.114,-16.296,7.141,213.928

0.003,1.866,-0.497,-230.103,-20.935,-122.803
-0.233,1.767,-0.453,-251.099,-42.175,-177.185
-0.456,1.551,-0.364,-253.967,-65.002,-242.493
-0.667,1.295,-0.307,-232.544,-87.097,-310.730
-0.842,1.100,-0.307,-192.139,-108.276,-373.840
-0.989,0.872,-0.352,-147.339,-130.615,-426.270
-1.102,0.640,-0.351,-110.291,-154.724,-466.248
-1.200,0.414,-0.264,-82.947,-177.063,-492.981
-1.282,0.158,-0.076,-59.082,-198.853,-511.780
-1.332,-0.195,0.285,-39.612,-217.834,-527.649
-1.395,-0.613,0.695,-26.672,-225.159,-539.062
-1.427,-1.153,0.959,-22.888,-217.896,-535.400
-1.443,-1.746,1.105,-43.518,-202.393,-506.897
-1.456,-2.394,1.480,-90.149,-184.143,-457.642
-1.465,-3.088,2.154,-137.207,-163.696,-397.156
-1.312,-3.591,2.621,-152.649,-133.545,-327.637
-1.038,-3.796,2.650,-130.676,-90.088,-257.019
-0.835,-3.816,2.369,-86.426,-46.265,-200.195
-0.687,-3.695,1.960,-43.091,-17.822,-157.532
-0.525,-3.503,1.559,-12.268,-7.935,-119.873
-0.345,-3.258,1.234,4.150,-10.681,-80.994
-0.135,-2.932,0.963,7.935,-14.832,-38.574
0.088,-2.551,0.706,5.188,-11.353,3.906
0.264,-2.209,0.456,-0.244,-1.343,39.612
0.411,-1.892,0.259,-5.554,9.521,65.002
0.511,-1.649,0.142,-6.592,14.709,79.285
0.573,-1.470,0.094,-1.953,11.902,83.008
0.624,-1.339,0.117,5.920,4.578,79.956
0.650,-1.249,0.202,15.869,-3.113,71.838
0.654,-1.202,0.300,26.978,-9.949,61.096
0.610,-1.214,0.409,36.011,-13.611,51.697
0.531,-1.241,0.530,41.504,-12.939,46.204
0.452,-1.285,0.631,45.410,-8.667,45.959
0.364,-1.321,0.722,48.340,-2.441,48.401
0.286,-1.341,0.783,50.293,5.005,53.284
0.229,-1.354,0.800,52.734,13.550,59.387
0.185,-1.335,0.771,54.932,22.583,66.833
0.133,-1.315,0.708,57.312,31.616,74.463
0.096,-1.291,0.646,58.960,37.720,81.604
0.069,-1.262,0.581,61.523,41.443,88.257
0.039,-1.233,0.524,66.040,43.579,94.910
0.029,-1.218,0.473,69.946,43.457,101.685
0.029,-1.206,0.426,71.594,42.542,110.046
0.035,-1.195,0.396,69.885,40.100,119.202
0.050,-1.154,0.374,66.284,36.804,129.272
0.070,-1.102,0.351,63.599,33.630,139.648
0.095,-1.058,0.333,62.256,31.433,149.780
0.123,-1.039,0.332,62.561,30.273,159.302
0.162,-0.982,0.328,63.477,29.602,167.908
0.193,-0.888,0.294,65.796,29.541,174.866
0.218,-0.825,0.269,68.481,32.043,179.871
0.252,-0.781,0.259,68.054,34.302,182.861
0.274,-0.767,0.240,64.636,35.950,184.265
0.304,-0.734,0.221,60.425,36.316,183.838
0.336,-0.691,0.176,57.190,36.560,182.922
0.357,-0.657,0.113,54.749,38.147,181.702
0.370,-0.622,0.063,50.049,38.574,180.725
0.384,-0.594,0.020,44.006,36.316,180.237
0.403,-0.578,0.023,38.086,31.006,180.603
0.435,-0.548,0.051,33.447,24.109,180.664

-1.382,1.157,-0.122,89.478,-65.186,-634.766
-1.593,0.693,-0.220,122.986,-67.871,-708.191
-1.744,0.102,-0.303,100.098,-70.496,-733.215
-1.895,-0.519,-0.252,24.963,-77.698,-708.313
-2.141,-1.260,0.174,-84.290,-88.684,-659.241
-2.329,-1.966,0.780,-188.721,-107.483,-602.173
-2.368,-2.630,1.394,-231.018,-120.239,-533.508
-2.328,-3.365,1.971,-198.975,-108.215,-460.815
-2.106,-3.851,2.194,-128.418,-80.627,-393.860
-1.882,-4.000,1.861,-57.373,-43.335,-336.182
-1.657,-4.000,1.409,-8.606,-10.498,-276.306
-1.419,-3.884,0.878,16.907,12.024,-212.402
-1.167,-3.596,0.484,21.484,18.311,-149.902
-0.862,-3.239,0.259,12.451,7.690,-91.980
-0.497,-2.862,0.107,0.000,-7.324,-40.833
-0.148,-2.510,-0.047,-11.719,-16.113,1.465
0.103,-2.208,-0.184,-22.766,-13.733,34.241
0.228,-1.948,-0.180,-33.813,-8.057,56.274
0.287,-1.752,-0.119,-38.696,-5.432,67.688
0.321,-1.613,-0.008,-32.593,-6.042,66.833
0.304,-1.533,0.112,-14.526,-7.568,53.955
0.232,-1.534,0.167,11.902,-7.446,35.217
0.098,-1.607,0.183,35.889,-6.531,19.531
-0.037,-1.687,0.232,47.729,-5.859,14.648
-0.147,-1.747,0.308,48.401,-5.798,19.775
-0.234,-1.750,0.367,43.335,-5.005,32.043
-0.297,-1.722,0.417,35.400,-1.587,49.805
-0.323,-1.657,0.435,27.344,3.601,70.068
-0.340,-1.575,0.416,21.179,9.094,87.952
-0.340,-1.500,0.384,17.090,13.123,102.966
-0.342,-1.432,0.366,14.160,13.855,114.685
-0.329,-1.378,0.366,14.404,12.085,122.742
-0.299,-1.319,0.353,18.250,8.545,128.052
-0.269,-1.267,0.330,24.292,6.042,132.568
-0.242,-1.217,0.315,29.236,3.906,136.780
-0.210,-1.192,0.314,32.593,3.479,141.968
-0.191,-1.177,0.332,33.752,4.089,146.912
-0.155,-1.153,0.322,34.302,6.470,153.076
-0.125,-1.120,0.286,34.790,11.230,161.011
-0.109,-1.092,0.267,32.715,15.137,167.908
-0.074,-1.082,0.236,29.114,16.968,171.997
-0.047,-1.070,0.200,26.184,16.296,176.880
-0.011,-1.043,0.173,23.193,14.465,182.373
0.025,-1.007,0.153,20.630,11.841,187.988
0.059,-0.978,0.143,18.799,9.216,194.214
0.091,-0.935,0.150,17.639,7.446,199.524
0.113,-0.895,0.159,17.578,5.676,202.393
0.135,-0.885,0.178,18.188,4.944,203.247
0.156,-0.874,0.210,17.029,3.357,202.271
0.189,-0.862,0.231,16.968,3.174,201.416
0.226,-0.829,0.225,19.226,6.470,202.393
0.249,-0.786,0.203,22.339,11.719,203.491
0.271,-0.753,0.165,24.475,16.418,204.163
0.307,-0.703,0.125,22.766,17.944,205.017
0.331,-0.650,0.098,19.897,17.273,206.604
0.359,-0.591,0.103,16.113,14.648,207.520
0.392,-0.532,0.118,13.367,10.559,206.970
0.421,-0.495,0.145,12.451,7.812,204.285
0.455,-0.498,0.178,12.695,7.324,199.463
0.483,-0.487,0.197,13.306,6.348,192.444

-0.739,1.393,-0.578,-155.701,-88.318,-356.934
-0.985,1.153,-0.571,-117.554,-126.221,-432.983
-1.210,0.686,-0.362,-77.332,-177.063,-509.216
-1.360,0.049,-0.003,-38.757,-231.140,-580.017
-1.557,-0.787,0.629,-19.470,-272.827,-636.597
-1.755,-1.981,1.378,-23.682,-292.480,-663.513
-1.868,-3.243,1.865,-44.495,-288.696,-623.840
-1.729,-4.000,2.515,-82.825,-242.737,-512.207
-1.342,-4.000,3.045,-110.657,-161.621,-367.920
-0.888,-4.000,2.685,-81.055,-69.946,-243.713
-0.708,-4.000,1.996,-31.921,2.075,-169.922
-0.485,-3.775,1.351,-10.559,29.297,-124.878
-0.241,-3.373,0.934,-7.019,24.292,-79.468
0.010,-2.873,0.641,-6.592,14.771,-33.264
0.267,-2.341,0.352,-4.028,10.986,6.531
0.445,-1.887,0.090,-2.197,11.108,32.532
0.547,-1.581,-0.090,-1.160,10.803,46.143
0.627,-1.354,-0.163,1.770,4.822,55.359
0.707,-1.149,-0.158,6.836,-3.479,59.387
0.747,-0.976,-0.043,9.338,-11.719,56.030
0.793,-0.857,0.101,11.719,-17.334,49.683
0.803,-0.799,0.225,17.517,-18.188,41.321
0.731,-0.761,0.333,26.245,-14.526,32.043
0.645,-0.768,0.433,34.912,-10.681,22.217
0.534,-0.828,0.525,40.833,-7.690,10.925
0.421,-0.923,0.588,41.992,-1.831,2.075
0.317,-1.038,0.645,37.537,6.958,-1.526
0.224,-1.156,0.674,30.090,17.395,-1.831
0.146,-1.267,0.671,25.940,25.940,0.549
0.096,-1.322,0.658,25.696,31.677,5.676
0.072,-1.368,0.571,30.396,35.767,12.939
0.042,-1.367,0.523,34.302,37.659,21.057
0.017,-1.357,0.460,37.170,38.635,30.396
0.026,-1.322,0.382,39.856,38.757,42.053
0.033,-1.267,0.323,41.138,38.147,54.138
0.047,-1.205,0.277,41.870,36.560,64.636
0.061,-1.165,0.282,42.542,33.203,73.547
0.089,-1.150,0.306,45.105,30.579,80.444
0.116,-1.121,0.312,50.049,27.954,85.388
0.140,-1.121,0.314,56.030,26.367,89.050
0.165,-1.127,0.320,60.913,25.513,92.224
0.186,-1.157,0.326,64.270,24.536,95.459
0.202,-1.181,0.331,66.101,23.499,100.220
0.224,-1.193,0.318,67.261,23.010,106.689
0.252,-1.184,0.291,65.735,22.888,114.502
0.278,-1.154,0.265,60.852,23.437,123.596
0.292,-1.113,0.245,53.528,24.048,132.812
0.307,-1.098,0.246,45.044,24.719,141.357
0.340,-1.055,0.246,36.072,24.109,148.437
0.363,-0.997,0.232,31.128,25.085,154.724
0.386,-0.932,0.226,30.273,27.527,158.752
0.404,-0.873,0.213,33.386,29.846,159.912
0.429,-0.815,0.176,38.757,30.579,158.081
0.444,-0.772,0.149,44.739,29.785,155.151
0.465,-0.743,0.139,49.133,27.466,152.893
0.484,-0.704,0.129,51.086,24.170,150.879
0.508,-0.653,0.105,51.575,21.484,151.062
0.517,-0.612,0.087,50.598,21.667,152.832
0.524,-0.594,0.090,45.654,21.057,153.564
0.539,-0.589,0.093,41.748,21.423,155.029

-1.216,-1.847,1.122,-225.647,-133.301,-398.560
-1.188,-2.355,1.701,-199.402,-140.259,-380.249
-1.110,-2.809,1.906,-127.197,-124.512,-363.464
-1.075,-3.193,1.872,-44.067,-98.938,-344.360
-1.054,-3.482,1.783,17.090,-71.655,-319.885
-0.990,-3.633,1.601,48.706,-49.561,-284.363
-0.933,-3.718,1.391,55.237,-33.508,-236.755
-0.847,-3.684,1.152,42.419,-19.409,-174.622
-0.716,-3.465,0.903,18.860,-5.737,-99.976
-0.527,-3.041,0.654,-7.263,3.296,-22.034
-0.323,-2.547,0.422,-28.625,6.470,45.898
-0.098,-2.084,0.217,-44.556,5.310,95.398
0.094,-1.677,0.103,-52.429,1.282,123.352
0.247,-1.392,0.047,-48.096,-4.150,132.568
0.359,-1.198,0.046,-33.142,-13.245,128.235
0.445,-1.079,0.093,-12.573,-24.414,115.417
0.514,-1.007,0.168,7.629,-34.485,99.915
0.568,-0.989,0.262,23.804,-41.565,85.205
0.611,-1.003,0.359,32.776,-43.701,72.021
0.615,-1.035,0.459,35.156,-41.504,61.340
0.586,-1.073,0.537,34.241,-34.119,54.810
0.522,-1.108,0.591,32.288,-23.865,52.551
0.458,-1.138,0.616,31.433,-12.207,53.101
0.377,-1.156,0.647,32.043,-2.197,55.054
0.312,-1.173,0.637,34.607,4.700,56.458
0.253,-1.186,0.631,39.124,8.850,57.007
0.209,-1.197,0.630,44.434,8.850,56.580
0.185,-1.195,0.621,51.697,7.568,56.274
0.168,-1.189,0.594,59.265,8.423,58.167
0.151,-1.166,0.555,62.378,10.681,63.782
0.144,-1.123,0.515,59.998,15.564,72.083
0.125,-1.090,0.475,54.565,21.057,81.299
0.117,-1.050,0.434,46.204,23.926,89.233
0.125,-1.012,0.408,38.635,24.841,96.375
0.139,-0.991,0.403,35.034,25.513,102.722
0.160,-0.956,0.378,35.828,24.963,105.713
0.179,-0.938,0.365,39.429,24.048,106.873
0.190,-0.950,0.357,43.335,22.583,106.934
0.211,-0.949,0.333,46.448,20.142,106.689
0.240,-0.921,0.303,47.852,16.968,108.459
0.254,-0.907,0.294,48.584,15.503,111.633
0.264,-0.900,0.293,46.936,13.428,113.586
0.269,-0.923,0.311,43.274,12.024,115.662
0.280,-0.953,0.327,39.063,12.573,118.713
0.296,-0.955,0.320,36.438,14.343,122.742
0.305,-0.969,0.320,35.583,17.395,125.977
0.312,-0.995,0.338,36.377,19.592,128.235
0.334,-1.001,0.324,39.307,22.644,131.042
0.342,-1.000,0.284,42.053,25.940,134.094
0.353,-0.993,0.246,43.213,27.222,138.550
0.346,-1.011,0.242,41.809,25.513,143.616
0.348,-1.088,0.297,39.063,22.949,148.926
0.363,-1.109,0.309,35.645,20.630,155.701
0.366,-1.124,0.347,32.471,19.104,164.551
0.396,-1.152,0.424,31.616,20.935,175.232
0.416,-1.126,0.451,35.889,26.245,185.242
0.420,-1.096,0.432,44.617,33.630,192.017
0.433,-1.000,0.389,52.490,39.307,198.059
0.440,-0.891,0.321,60.181,46.265,204.529
0.423,-0.768,0.223,66.467,53.833,211.304

-1.239,-2.290,0.977,75.134,-242.065,-576.721
-1.287,-3.194,1.423,7.263,-224.121,-523.071
-1.132,-3.702,1.925,-65.308,-180.908,-418.396
-0.937,-3.855,2.286,-91.431,-115.845,-302.490
-0.706,-3.748,2.282,-62.256,-56.458,-205.688
-0.502,-3.525,1.951,-10.803,-10.071,-141.846
-0.391,-3.289,1.513,24.719,22.400,-102.356
-0.302,-3.069,1.128,32.410,44.006,-67.932
-0.183,-2.842,0.816,19.165,54.077,-31.921
-0.044,-2.542,0.618,-0.183,54.749,5.920
0.100,-2.230,0.450,-9.094,53.833,39.429
0.227,-1.943,0.302,-5.188,52.795,62.744
0.326,-1.705,0.165,7.080,51.697,74.341
0.390,-1.526,0.042,21.240,50.049,76.660
0.433,-1.403,-0.049,32.349,47.058,73.547
0.459,-1.320,-0.109,39.978,42.908,68.115
0.474,-1.271,-0.144,43.762,37.781,62.805
0.475,-1.254,-0.133,43.152,31.982,59.875
0.443,-1.261,-0.085,39.063,26.001,60.791
0.396,-1.265,-0.012,33.447,19.470,64.514
0.344,-1.274,0.086,29.053,13.184,70.190
0.308,-1.283,0.188,26.794,7.996,75.256
0.273,-1.317,0.284,27.771,5.310,80.566
0.242,-1.325,0.378,29.968,3.601,85.327
0.227,-1.317,0.444,34.668,4.700,89.600
0.217,-1.298,0.448,40.100,8.789,93.933
0.212,-1.263,0.423,44.006,14.343,99.609
0.197,-1.229,0.401,45.471,19.470,104.553
0.181,-1.206,0.379,44.678,22.827,109.253
0.183,-1.213,0.356,42.603,26.184,114.929
0.181,-1.192,0.342,39.185,29.053,121.521
0.188,-1.183,0.323,37.537,32.532,128.235
0.191,-1.179,0.306,37.537,36.072,134.949
0.200,-1.177,0.276,38.269,39.124,141.052
0.213,-1.135,0.222,40.161,41.992,147.888
0.224,-1.081,0.163,42.297,43.640,154.541
0.237,-1.029,0.112,44.495,44.006,160.400
0.242,-0.971,0.057,46.509,44.006,165.771
0.245,-0.924,0.003,45.105,42.725,170.898
0.251,-0.890,-0.011,40.405,39.368,174.988
0.265,-0.854,-0.016,34.973,34.058,178.040
0.271,-0.830,-0.017,30.396,30.029,181.335
0.272,-0.828,0.002,24.414,27.771,185.852
0.284,-0.839,0.051,18.982,26.367,191.406
0.309,-0.824,0.074,16.907,26.184,197.754
0.312,-0.790,0.063,18.311,27.710,203.918
0.318,-0.760,0.061,21.240,29.053,209.534
0.332,-0.730,0.062,24.170,29.175,214.355
0.352,-0.712,0.053,26.672,28.931,219.421
0.361,-0.668,0.045,24.109,25.635,228.027
0.372,-0.611,0.047,14.771,21.667,240.723
0.391,-0.529,0.075,-0.061,18.860,255.798
0.420,-0.438,0.104,-15.869,18.188,271.118
0.447,-0.320,0.148,-28.625,20.447,283.447
0.483,-0.187,0.188,-35.461,27.649,291.199
0.513,-0.028,0.181,-33.142,39.124,293.396
0.545,0.148,0.123,-24.109,49.805,290.588
0.590,0.344,0.050,-16.052,58.655,283.142
0.609,0.518,-0.024,-13.000,64.148,270.569
0.632,0.734,-0.062,-17.395,67.993,253.052

-1.317,-2.106,1.044,-83.496,-218.018,-568.298
-1.207,-2.750,1.356,-159.546,-196.350,-507.019
-1.189,-3.132,1.694,-217.102,-152.588,-411.438
-1.156,-3.297,2.146,-231.995,-103.638,-310.730
-0.855,-3.204,2.301,-195.007,-68.481,-224.304
-0.594,-3.060,2.037,-124.023,-47.424,-171.692
-0.531,-2.931,1.689,-55.847,-27.588,-154.297
-0.545,-2.869,1.430,-9.399,-15.076,-151.184
-0.521,-2.871,1.203,20.996,-12.573,-144.897
-0.469,-2.817,1.030,38.025,-14.832,-124.207
-0.389,-2.690,0.879,45.349,-13.855,-92.224
-0.268,-2.532,0.706,46.936,-9.583,-55.481
-0.128,-2.349,0.541,39.795,-4.639,-19.348
0.006,-2.160,0.416,26.123,1.648,15.320
0.107,-1.956,0.339,12.512,9.155,47.119
0.184,-1.768,0.297,5.798,15.076,71.533
0.239,-1.594,0.259,6.714,17.456,85.815
0.285,-1.453,0.228,11.963,16.907,91.736
0.318,-1.352,0.223,16.907,13.977,90.698
0.334,-1.292,0.241,20.813,10.071,85.754
0.326,-1.284,0.291,25.024,6.897,79.651
0.303,-1.312,0.359,30.151,5.493,75.134
0.264,-1.334,0.424,36.682,4.395,72.632
0.218,-1.368,0.473,43.640,5.371,73.303
0.187,-1.390,0.499,47.974,7.629,77.087
0.163,-1.398,0.494,47.424,11.902,86.060
0.138,-1.386,0.504,41.504,18.555,98.511
0.118,-1.374,0.512,35.095,25.085,111.450
0.106,-1.337,0.508,33.325,30.090,121.948
0.098,-1.284,0.498,39.001,33.875,128.845
0.086,-1.238,0.478,51.208,35.828,130.920
0.075,-1.213,0.431,63.721,33.875,129.456
0.082,-1.196,0.368,70.313,31.128,130.066
0.083,-1.176,0.338,69.153,29.968,136.169
0.079,-1.173,0.341,65.002,31.372,145.630
0.086,-1.152,0.344,62.866,31.921,153.870
0.079,-1.150,0.347,64.453,30.884,159.851
0.083,-1.149,0.357,67.871,30.334,165.649
0.084,-1.148,0.362,71.228,30.701,172.241
0.086,-1.138,0.342,73.181,32.410,180.237
0.089,-1.115,0.301,72.815,34.424,190.857
0.102,-1.070,0.249,70.129,35.645,202.881
0.111,-1.016,0.215,64.026,36.072,213.440
0.129,-0.953,0.182,55.481,34.790,222.839
0.151,-0.891,0.166,48.157,32.715,230.042
0.164,-0.828,0.161,44.006,29.846,235.107
0.192,-0.792,0.146,44.739,28.320,239.258
0.207,-0.738,0.130,47.485,25.757,242.310
0.217,-0.674,0.115,49.927,21.729,243.896
0.240,-0.615,0.122,50.171,18.799,245.544
0.261,-0.547,0.120,49.622,17.395,246.216
0.281,-0.501,0.109,48.157,17.334,246.216
0.303,-0.454,0.108,45.959,19.409,248.108
0.325,-0.376,0.094,44.250,22.522,252.136
0.349,-0.283,0.063,45.105,26.794,257.751
0.373,-0.183,0.030,47.119,30.762,264.404
0.399,-0.068,0.010,49.438,32.410,270.203
0.421,0.070,-0.010,53.101,32.043,274.597
0.426,0.234,-0.037,57.495,31.189,277.527
0.450,0.439,-0.076,57.739,28.320,278.625

-1.026,-1.701,1.367,-47.913,-225.830,-452.576
-1.121,-2.311,1.565,-25.696,-207.703,-461.365
-1.111,-2.825,1.555,-21.240,-176.697,-433.594
-1.069,-3.255,1.534,-35.583,-136.047,-368.042
-1.043,-3.513,1.628,-57.495,-99.670,-285.095
-0.964,-3.554,1.699,-67.688,-74.097,-201.782
-0.784,-3.355,1.667,-55.603,-58.960,-130.737
-0.610,-3.058,1.490,-23.621,-47.485,-80.872
-0.471,-2.754,1.191,10.376,-34.607,-47.546
-0.312,-2.476,0.863,30.518,-21.484,-19.348
-0.130,-2.196,0.573,30.823,-11.902,9.827
0.040,-1.917,0.355,17.639,-5.371,39.612
0.176,-1.657,0.222,0.366,-0.977,66.345
0.277,-1.434,0.172,-13.306,1.770,86.243
0.350,-1.244,0.164,-20.935,3.357,97.046
0.423,-1.098,0.171,-22.766,3.662,97.412
0.487,-0.992,0.200,-20.874,2.319,88.989
0.524,-0.944,0.251,-16.602,1.709,75.256
0.529,-0.960,0.316,-11.963,3.235,59.326
0.508,-0.995,0.392,-5.859,5.981,45.227
0.453,-1.053,0.450,2.258,9.399,34.119
0.364,-1.113,0.486,8.972,13.123,27.527
0.283,-1.169,0.536,10.620,17.822,27.405
0.213,-1.221,0.591,8.362,21.973,31.372
0.158,-1.260,0.638,6.897,26.245,36.865
0.115,-1.292,0.667,8.362,31.616,43.152
0.078,-1.317,0.660,11.658,37.537,49.683
0.058,-1.326,0.631,14.832,42.847,57.007
0.041,-1.324,0.593,16.846,46.631,65.186
0.024,-1.331,0.589,19.531,48.401,72.754
0.021,-1.371,0.599,23.682,50.598,79.773
0.026,-1.388,0.587,29.907,51.453,86.243
0.022,-1.412,0.557,38.757,53.528,94.543
0.007,-1.439,0.526,45.044,56.152,105.042
0.002,-1.498,0.504,47.546,57.251,118.164
0.000,-1.516,0.493,48.889,57.678,134.827
0.000,-1.501,0.484,52.185,57.800,152.405
0.004,-1.483,0.476,57.434,56.458,167.419
0.011,-1.453,0.473,63.782,55.176,178.345
0.023,-1.392,0.442,70.190,55.542,186.951
0.037,-1.329,0.369,75.256,58.594,193.848
0.055,-1.248,0.284,76.660,61.218,200.500
0.068,-1.168,0.180,75.684,63.599,207.153
0.080,-1.082,0.087,71.533,62.500,213.989
0.109,-0.989,0.030,65.002,56.763,219.971
0.141,-0.911,0.022,59.082,47.058,223.755
0.177,-0.840,0.042,54.932,34.058,224.670
0.212,-0.773,0.070,52.856,22.766,225.281
0.232,-0.710,0.117,51.941,15.808,225.281
0.263,-0.681,0.163,51.392,13.062,224.792
0.274,-0.624,0.181,51.575,13.550,223.755
0.290,-0.572,0.166,54.382,18.127,223.145
0.309,-0.520,0.141,57.678,24.048,222.595
0.326,-0.470,0.111,61.218,28.137,221.069
0.343,-0.427,0.078,64.392,29.602,219.299
0.364,-0.385,0.060,64.636,26.184,217.407
0.396,-0.330,0.060,63.538,20.386,215.576
0.432,-0.268,0.078,63.843,12.634,212.708
0.473,-0.198,0.102,66.772,5.615,207.886
0.523,-0.114,0.094,70.618,1.831,202.515

-1.217,-1.756,0.689,6.592,-213.989,-523.010
-1.292,-2.406,1.082,-55.969,-198.853,-478.088
-1.313,-2.967,1.674,-128.479,-165.405,-402.527
-1.204,-3.297,2.015,-164.246,-117.615,-317.078
-1.056,-3.395,2.086,-153.870,-71.899,-236.633
-0.906,-3.346,1.984,-117.004,-40.894,-172.546
-0.730,-3.193,1.755,-74.646,-20.508,-129.028
-0.583,-2.970,1.452,-38.940,-6.592,-97.046
-0.463,-2.764,1.153,-15.747,5.920,-69.214
-0.319,-2.574,0.898,-10.132,16.418,-40.833
-0.156,-2.316,0.682,-17.395,20.508,-10.498
0.017,-2.062,0.479,-25.696,22.461,16.663
0.153,-1.858,0.323,-30.090,24.719,37.964
0.251,-1.690,0.204,-27.954,26.184,50.781
0.316,-1.557,0.125,-20.142,25.696,56.274
0.354,-1.462,0.079,-9.277,23.315,56.213
0.373,-1.384,0.052,1.404,18.555,53.711
0.370,-1.344,0.082,8.728,10.681,49.194
0.346,-1.350,0.161,11.658,1.526,44.495
0.304,-1.370,0.267,12.878,-5.066,42.480
0.241,-1.398,0.375,14.587,-8.362,44.006
0.183,-1.415,0.477,16.846,-8.423,47.363
0.128,-1.435,0.540,19.348,-5.493,52.734
0.086,-1.437,0.584,20.325,-0.610,60.181
0.053,-1.432,0.608,20.325,6.165,69.336
0.022,-1.418,0.617,20.264,13.916,78.857
0.004,-1.397,0.607,21.545,21.240,87.585
-0.000,-1.367,0.567,25.085,27.588,95.642
-0.000,-1.324,0.511,29.907,32.104,103.760
-0.009,-1.282,0.465,34.302,34.241,111.084
0.005,-1.247,0.443,37.781,34.180,118.225
0.029,-1.205,0.421,42.175,32.471,124.451
0.053,-1.151,0.392,47.852,30.945,130.005
0.071,-1.103,0.369,53.650,29.846,134.460
0.088,-1.058,0.343,57.373,28.198,137.939
0.117,-1.011,0.318,59.204,25.818,141.052
0.118,-1.007,0.349,58.350,23.926,143.433
0.152,-1.044,0.383,56.030,23.010,145.325
0.188,-1.043,0.355,55.603,23.254,149.597
0.208,-1.027,0.322,55.115,27.161,156.860
0.228,-1.003,0.295,50.781,32.349,163.818
0.232,-0.989,0.264,44.495,35.522,169.617
0.251,-1.004,0.265,38.635,37.415,175.537
0.275,-0.984,0.268,35.706,36.926,181.702
0.302,-0.952,0.258,38.025,36.682,187.195
0.324,-0.904,0.239,43.884,37.048,190.796
0.341,-0.875,0.216,49.988,35.889,191.956
0.348,-0.864,0.211,54.260,34.058,192.383
0.364,-0.866,0.228,56.641,31.799,194.519
0.368,-0.870,0.233,57.495,29.053,198.792
0.375,-0.868,0.244,57.312,27.466,205.505
0.406,-0.814,0.233,56.641,27.527,214.172
0.416,-0.740,0.183,55.786,28.442,220.764
0.414,-0.689,0.146,53.467,29.846,224.121
0.429,-0.647,0.127,49.500,29.175,224.915
0.435,-0.597,0.096,47.852,25.208,222.595
0.452,-0.558,0.083,50.049,19.531,218.384
0.476,-0.508,0.077,56.580,11.536,210.266
0.501,-0.451,0.074,67.627,1.404,196.777
0.530,-0.373,0.053,82.764,-8.118,182.129

-2.003,-1.569,1.029,25.757,-263.245,-628.967
-2.075,-2.534,1.642,-7.080,-253.052,-595.093
-2.035,-3.306,2.325,-57.800,-208.679,-512.573
-1.780,-3.629,2.559,-86.182,-133.972,-393.921
-1.449,-3.596,2.316,-86.182,-50.232,-279.663
-1.221,-3.401,1.942,-75.623,4.944,-198.975
-1.030,-3.268,1.603,-70.496,27.527,-152.954
-0.868,-3.169,1.339,-63.599,25.146,-118.958
-0.680,-2.935,1.146,-52.673,15.686,-80.078
-0.445,-2.625,1.005,-39.551,8.911,-41.687
-0.203,-2.328,0.824,-26.550,7.385,-12.024
0.008,-2.073,0.595,-14.832,12.634,8.972
0.176,-1.873,0.355,-7.507,21.423,25.208
0.310,-1.714,0.191,-4.639,27.100,37.537
0.408,-1.587,0.089,-3.357,27.405,45.593
0.452,-1.477,0.058,-0.366,23.560,49.377
0.469,-1.381,0.075,3.967,16.052,49.316
0.476,-1.313,0.139,6.470,6.409,45.898
0.436,-1.298,0.255,6.958,-3.296,40.344
0.360,-1.316,0.391,8.057,-9.521,36.011
0.271,-1.346,0.510,12.146,-11.719,34.973
0.188,-1.356,0.605,18.250,-9.888,37.231
0.100,-1.347,0.664,24.292,-5.859,40.894
0.028,-1.331,0.708,30.457,-1.465,45.288
-0.014,-1.298,0.710,34.241,2.869,49.316
-0.029,-1.259,0.684,35.034,5.127,52.368
-0.043,-1.223,0.649,33.508,7.019,56.274
-0.047,-1.174,0.609,31.555,10.925,61.584
-0.056,-1.122,0.578,30.579,14.404,66.711
-0.053,-1.091,0.553,31.311,16.968,71.167
-0.038,-1.078,0.525,31.982,18.860,75.500
-0.016,-1.046,0.492,31.921,18.677,79.224
-0.002,-1.048,0.476,32.532,18.982,83.801
0.033,-1.073,0.501,33.630,19.897,89.478
0.065,-1.104,0.541,37.292,22.827,95.398
0.083,-1.131,0.557,44.189,27.283,101.379
0.105,-1.180,0.544,51.392,33.325,107.849
0.122,-1.202,0.500,53.955,37.354,115.784
0.141,-1.214,0.473,52.185,39.368,125.916
0.168,-1.219,0.451,48.279,39.978,137.024
0.187,-1.201,0.428,44.373,39.124,147.461
0.207,-1.181,0.425,41.077,37.659,157.288
0.238,-1.141,0.443,38.391,37.964,166.809
0.260,-1.110,0.452,38.086,40.527,173.279
0.279,-1.075,0.452,39.734,44.495,177.063
0.299,-1.047,0.427,42.847,48.157,179.077
0.322,-1.020,0.375,46.082,52.063,179.932
0.329,-0.997,0.320,47.485,54.871,182.251
0.328,-0.969,0.285,46.997,57.129,186.890
0.322,-0.946,0.261,45.654,58.960,191.284
0.316,-0.965,0.217,43.762,60.059,195.435
0.301,-0.999,0.184,40.649,57.495,200.867
0.306,-1.025,0.194,39.063,54.260,210.327
0.343,-0.994,0.189,41.199,51.208,220.764
0.336,-0.930,0.191,44.922,46.387,227.905
0.360,-0.855,0.195,47.424,40.283,233.826
0.377,-0.803,0.246,47.180,35.278,238.464
0.409,-0.828,0.304,46.082,32.471,242.065
0.427,-0.789,0.326,46.509,30.334,245.422
0.415,-0.740,0.310,48.218,29.602,248.962

-2.282,-1.809,0.583,89.966,-321.472,-678.040
-2.647,-3.069,1.134,-3.418,-341.431,-643.555
-2.475,-3.960,2.146,-112.549,-320.984,-533.691
-1.845,-4.000,3.005,-151.306,-256.714,-374.268
-1.501,-3.947,3.116,-81.848,-153.687,-230.530
-1.334,-3.748,2.394,17.639,-33.264,-152.039
-1.280,-3.501,1.503,57.556,48.279,-113.037
-1.119,-3.248,0.840,36.194,77.881,-72.754
-0.891,-2.936,0.554,-4.883,69.885,-24.475
-0.561,-2.555,0.431,-33.447,44.739,24.963
-0.219,-2.125,0.404,-37.720,21.057,66.101
0.049,-1.733,0.368,-23.315,8.728,89.417
0.238,-1.490,0.307,-1.160,6.775,95.764
0.349,-1.355,0.236,17.090,9.521,91.187
0.446,-1.282,0.160,27.893,13.855,84.351
0.504,-1.226,0.125,32.288,16.907,79.590
0.535,-1.161,0.133,32.043,16.296,76.538
0.547,-1.130,0.184,28.320,14.526,74.219
0.512,-1.142,0.275,22.095,14.221,71.289
0.420,-1.200,0.360,17.334,16.052,68.237
0.302,-1.251,0.489,13.611,20.203,67.322
0.200,-1.290,0.561,15.686,25.757,67.749
0.099,-1.329,0.604,23.804,30.396,68.237
0.013,-1.352,0.618,32.410,35.095,68.176
-0.053,-1.374,0.592,38.757,37.964,68.787
-0.109,-1.376,0.545,39.673,38.208,72.998
-0.136,-1.354,0.497,36.194,37.781,81.482
-0.154,-1.319,0.475,29.785,36.560,93.018
-0.158,-1.276,0.461,23.071,34.790,105.347
-0.162,-1.214,0.463,18.250,33.630,117.310
-0.161,-1.188,0.480,16.357,34.424,126.587
-0.141,-1.158,0.469,17.456,35.156,133.423
-0.119,-1.128,0.448,19.897,35.461,138.367
-0.103,-1.138,0.441,22.827,35.400,142.456
-0.069,-1.153,0.439,26.367,34.607,146.301
-0.036,-1.144,0.430,32.166,32.532,149.292
0.001,-1.146,0.413,38.513,30.762,152.954
0.039,-1.147,0.382,41.626,29.602,158.569
0.078,-1.123,0.385,40.771,28.564,167.297
0.113,-1.120,0.416,37.781,28.687,177.063
0.140,-1.115,0.445,35.217,29.846,185.059
0.172,-1.120,0.473,34.851,31.860,191.284
0.215,-1.094,0.476,37.048,35.461,196.472
0.245,-1.050,0.438,41.382,39.978,200.439
0.264,-1.024,0.385,46.204,44.678,203.613
0.277,-1.001,0.326,50.903,47.241,205.994
0.295,-1.000,0.285,54.321,46.814,207.520
0.307,-0.992,0.248,55.664,43.762,210.144
0.334,-0.972,0.241,54.016,38.635,213.928
0.365,-0.940,0.250,51.392,33.142,219.360
0.390,-0.915,0.266,50.720,29.541,227.234
0.411,-0.872,0.265,50.293,26.733,234.863
0.405,-0.768,0.241,49.255,23.621,241.943
0.420,-0.651,0.195,47.913,21.790,249.878
0.424,-0.553,0.170,41.016,20.813,255.554
0.442,-0.467,0.168,30.579,19.775,259.094
0.464,-0.397,0.184,22.644,17.822,259.155
0.490,-0.353,0.232,17.639,15.015,256.104
0.505,-0.274,0.258,17.944,15.015,252.502
0.515,-0.184,0.226,22.400,19.409,250.488

-1.078,-2.249,1.008,-123.962,-135.010,-452.759
-1.018,-2.698,1.143,-123.230,-119.873,-401.428
-0.956,-3.113,1.266,-127.319,-93.750,-337.219
-0.820,-3.264,1.308,-134.949,-63.843,-258.667
-0.628,-3.194,1.274,-133.972,-34.363,-178.955
-0.479,-3.077,1.226,-124.207,-10.803,-119.263
-0.350,-2.934,1.115,-101.501,0.671,-85.999
-0.241,-2.785,0.990,-65.979,0.000,-72.815
-0.140,-2.631,0.878,-21.362,-6.958,-69.763
-0.054,-2.513,0.711,21.179,-14.893,-69.580
0.041,-2.375,0.517,47.302,-17.456,-61.096
0.151,-2.198,0.324,52.979,-13.367,-41.504
0.248,-2.015,0.172,45.105,-4.639,-14.160
0.323,-1.831,0.079,27.405,4.272,15.259
0.386,-1.668,0.039,9.338,12.878,41.626
0.429,-1.525,0.017,-0.244,20.203,60.974
0.462,-1.415,-0.011,1.099,25.818,71.228
0.480,-1.332,-0.031,10.010,27.222,71.472
0.485,-1.295,-0.044,21.973,25.208,64.880
0.477,-1.295,-0.035,33.630,20.752,55.847
0.447,-1.318,-0.014,43.457,15.625,48.157
0.400,-1.345,0.036,49.194,10.498,44.189
0.347,-1.388,0.098,51.331,6.653,45.715
0.296,-1.443,0.176,49.927,5.066,50.964
0.251,-1.489,0.237,44.250,5.798,60.913
0.212,-1.521,0.280,36.987,8.667,73.730
0.186,-1.536,0.324,29.846,11.536,87.585
0.176,-1.529,0.370,27.039,14.221,100.830
0.162,-1.517,0.413,31.006,18.677,111.755
0.140,-1.561,0.497,40.894,24.597,119.080
0.132,-1.616,0.585,55.542,31.860,124.573
0.117,-1.695,0.585,72.815,43.640,132.080
0.080,-1.762,0.494,83.008,56.702,143.799
0.059,-1.773,0.350,81.421,64.941,162.964
0.052,-1.701,0.191,68.848,65.552,190.063
0.072,-1.546,0.101,49.072,60.974,221.680
0.093,-1.361,0.089,29.602,53.711,249.268
0.122,-1.205,0.113,17.883,46.753,268.616
0.157,-1.068,0.165,14.648,43.030,279.785
0.192,-0.948,0.176,20.264,43.091,282.654
0.213,-0.849,0.170,30.457,44.006,278.381
0.236,-0.746,0.127,40.710,44.922,270.264
0.253,-0.657,0.061,48.279,44.067,260.986
0.280,-0.582,0.026,52.063,42.725,253.540
0.304,-0.517,-0.014,52.429,39.673,248.779
0.319,-0.478,-0.050,48.645,35.217,246.582
0.330,-0.412,-0.082,41.931,30.212,245.911
0.342,-0.371,-0.089,32.715,24.597,245.911
0.348,-0.325,-0.080,22.400,18.250,246.155
0.355,-0.274,-0.080,16.968,15.076,246.277
0.365,-0.224,-0.066,17.578,14.465,242.981
0.370,-0.132,-0.050,24.658,14.587,236.145
0.385,-0.021,-0.095,37.964,16.418,226.685
0.407,0.084,-0.167,51.575,16.785,216.858
0.422,0.209,-0.240,60.486,11.780,209.045
0.448,0.367,-0.284,62.500,3.113,205.017
0.485,0.540,-0.272,58.105,-6.409,199.402
0.529,0.715,-0.236,49.744,-15.991,189.087
0.595,0.836,-0.204,43.579,-22.217,171.814
0.642,0.891,-0.145,42.908,-24.292,147.095

1.166,1.200,0.229,-46.997,16.846,4.883
1.152,1.260,0.221,-58.228,22.217,-10.986
1.116,1.301,0.211,-68.054,26.978,-29.602
1.068,1.318,0.211,-77.148,30.884,-49.805
1.008,1.324,0.213,-83.923,36.926,-70.984
0.913,1.334,0.206,-89.905,44.067,-93.201
0.793,1.326,0.178,-95.093,51.880,-116.699
0.667,1.293,0.109,-100.403,57.373,-141.479
0.534,1.282,0.055,-107.849,59.326,-168.152
0.423,1.271,0.000,-118.958,57.007,-193.054
0.301,1.229,-0.058,-133.667,51.025,-214.233
0.166,1.156,-0.037,-154.175,39.429,-231.873
0.058,1.038,0.012,-171.875,27.832,-249.390
-0.132,0.940,0.064,-180.603,19.287,-269.836
-0.311,0.865,0.084,-178.711,12.878,-293.640
-0.503,0.673,0.054,-170.837,8.667,-323.975
-0.604,0.465,-0.015,-163.025,3.845,-355.774
-0.729,0.303,-0.211,-158.142,-6.470,-385.071
-0.867,0.177,-0.268,-149.597,-20.203,-408.813
-0.972,0.092,-0.238,-129.333,-42.664,-426.758
-1.003,-0.046,-0.245,-95.947,-74.402,-446.472
-0.996,-0.292,-0.236,-62.195,-104.065,-475.464
-1.043,-0.628,-0.092,-47.546,-129.150,-507.935
-1.107,-1.185,0.119,-44.189,-142.700,-534.729
-1.314,-1.935,0.565,-63.721,-141.663,-537.842
-1.484,-2.723,1.104,-100.647,-128.479,-489.502
-1.401,-3.230,1.533,-128.479,-100.037,-393.616
-1.100,-3.347,1.682,-129.883,-68.726,-287.354
-0.858,-3.340,1.517,-110.596,-44.739,-209.778
-0.683,-3.255,1.276,-80.078,-30.273,-160.645
-0.532,-3.097,1.004,-41.870,-26.550,-131.409
-0.406,-2.949,0.780,-2.563,-33.203,-110.474
-0.279,-2.770,0.686,25.085,-43.213,-90.942
-0.181,-2.565,0.599,42.542,-45.471,-69.214
-0.055,-2.402,0.478,50.171,-41.077,-44.922
0.100,-2.218,0.293,48.950,-31.738,-15.930
0.214,-2.030,0.137,38.208,-20.203,12.634
0.304,-1.844,0.073,20.569,-8.606,40.527
0.419,-1.666,0.033,6.348,0.549,64.331
0.468,-1.526,0.037,0.549,7.874,76.660
0.492,-1.437,0.069,3.601,12.695,79.590
0.495,-1.399,0.104,14.709,14.587,75.317
0.461,-1.414,0.138,30.579,14.343,65.918
0.395,-1.471,0.174,45.471,12.207,56.763
0.335,-1.506,0.201,59.143,10.010,54.260
0.272,-1.508,0.227,70.923,8.972,56.946
0.214,-1.506,0.231,78.491,9.216,62.988
0.148,-1.526,0.236,79.895,10.742,71.899
0.102,-1.551,0.228,74.463,12.329,84.839
0.068,-1.542,0.234,67.139,13.489,100.708
0.052,-1.500,0.225,63.965,14.648,116.211
0.035,-1.446,0.218,65.796,15.198,129.333
0.029,-1.390,0.215,70.496,13.733,140.320
0.034,-1.328,0.214,77.026,12.085,148.010
0.036,-1.280,0.179,84.534,10.559,153.503
0.042,-1.248,0.146,90.210,9.644,159.119
0.051,-1.199,0.103,91.125,8.667,165.588
0.048,-1.171,0.055,87.402,7.507,174.011
0.066,-1.136,0.009,79.224,5.432,184.998
0.072,-1.104,-0.006,65.796,2.808,197.327

-1.401,-2.268,0.515,-68.115,-130.310,-483.948
-1.244,-2.552,1.085,-133.301,-104.004,-390.991
-1.187,-2.764,1.481,-158.203,-79.407,-309.509
-1.028,-2.856,1.545,-142.395,-46.875,-241.394
-0.950,-2.869,1.436,-109.863,-17.700,-192.017
-0.946,-2.855,1.218,-78.491,4.456,-155.457
-0.933,-2.871,0.966,-57.068,18.494,-125.244
-0.878,-2.885,0.758,-43.823,21.973,-94.727
-0.793,-2.809,0.671,-33.081,17.456,-63.171
-0.674,-2.681,0.645,-21.179,9.094,-34.485
-0.562,-2.529,0.593,-8.606,3.723,-9.644
-0.461,-2.362,0.497,3.601,5.798,14.832
-0.353,-2.179,0.377,12.756,12.024,38.879
-0.260,-2.015,0.262,19.287,17.639,61.035
-0.186,-1.871,0.175,24.963,21.729,80.261
-0.127,-1.739,0.100,29.724,24.780,95.520
-0.081,-1.640,0.087,31.494,25.696,107.544
-0.035,-1.576,0.114,31.494,24.780,116.882
0.005,-1.533,0.150,35.217,21.301,123.047
0.041,-1.493,0.183,45.227,16.785,125.549
0.044,-1.475,0.178,57.373,11.780,126.099
0.029,-1.494,0.199,67.078,6.775,127.014
0.009,-1.520,0.238,74.036,0.366,129.517
-0.015,-1.541,0.290,78.918,-5.920,137.512
-0.025,-1.507,0.355,79.224,-8.789,151.306
-0.005,-1.417,0.407,76.843,-7.446,167.664
0.020,-1.304,0.436,75.378,-2.747,181.091
0.038,-1.196,0.424,76.355,4.517,189.209
0.052,-1.113,0.357,79.651,11.902,191.833
0.054,-1.047,0.277,83.191,17.151,191.895
0.052,-1.029,0.194,85.266,19.226,192.139
0.049,-1.014,0.108,83.923,18.799,195.618
0.049,-0.973,0.069,77.637,16.479,202.942
0.065,-0.921,0.092,69.275,14.160,212.097
0.099,-0.865,0.114,61.340,12.939,220.703
0.127,-0.800,0.114,55.054,12.573,228.455
0.155,-0.737,0.101,50.293,13.733,236.328
0.179,-0.660,0.098,46.143,16.113,243.469
0.239,-0.589,0.097,41.626,20.325,248.596
0.281,-0.521,0.085,37.476,24.414,252.258
0.304,-0.486,0.074,33.203,27.161,255.493
0.311,-0.456,0.058,27.771,28.625,259.155
0.343,-0.415,0.050,23.315,29.297,263.428
0.369,-0.363,0.050,20.691,29.480,266.479
0.390,-0.318,0.055,20.203,29.724,267.639
0.406,-0.265,0.053,19.775,31.250,266.235
0.422,-0.214,0.027,19.836,33.691,264.404
0.437,-0.173,-0.036,22.034,35.339,263.672
0.427,-0.166,-0.115,24.597,35.645,265.503
0.418,-0.142,-0.178,22.339,33.081,271.484
0.404,-0.091,-0.191,15.259,27.039,281.555
0.435,0.004,-0.140,10.132,18.921,295.166
0.516,0.188,-0.077,11.047,13.794,304.077
0.564,0.382,-0.078,16.724,10.071,300.049
0.649,0.520,-0.109,18.738,7.141,289.429
0.795,0.726,-0.086,9.949,11.108,266.968
0.905,0.874,-0.094,-0.061,12.573,232.788
0.884,0.981,-0.127,-2.625,11.597,192.627
0.991,0.950,-0.151,3.479,13.367,155.334
1.029,0.900,-0.163,21.057,12.634,114.685

-1.538,-2.205,1.075,-12.817,-177.124,-489.319
-1.635,-2.839,1.376,-71.289,-127.502,-418.945
-1.667,-3.254,1.811,-117.432,-78.674,-329.102
-1.536,-3.364,1.913,-119.812,-27.039,-239.990
-1.401,-3.326,1.639,-84.656,8.850,-169.739
-1.322,-3.209,1.221,-39.917,25.757,-123.108
-1.232,-3.096,0.831,-12.207,27.344,-90.271
-1.079,-2.940,0.597,-2.747,16.602,-54.993
-0.867,-2.635,0.542,0.671,2.686,-17.822
-0.697,-2.406,0.464,9.277,-7.690,16.541
-0.498,-2.157,0.356,18.860,-10.742,49.316
-0.340,-1.928,0.216,24.048,-8.118,78.491
-0.190,-1.735,0.078,26.855,-3.418,102.356
-0.060,-1.603,-0.030,29.785,0.854,117.554
0.016,-1.504,-0.110,34.790,3.235,122.314
0.056,-1.430,-0.154,39.612,3.784,120.605
0.115,-1.371,-0.153,42.419,3.479,116.333
0.118,-1.370,-0.112,42.358,0.793,109.680
0.129,-1.406,-0.092,37.231,-0.610,104.553
0.068,-1.424,-0.007,26.855,-0.854,103.455
0.038,-1.440,0.099,15.320,1.343,107.727
0.001,-1.439,0.194,9.766,3.845,115.112
-0.021,-1.410,0.268,10.620,5.188,122.375
-0.017,-1.370,0.307,14.954,7.019,130.249
-0.027,-1.316,0.336,17.822,9.338,136.658
-0.028,-1.245,0.364,19.775,11.902,141.541
-0.014,-1.195,0.340,23.376,16.052,146.729
-0.016,-1.149,0.297,26.550,20.081,150.635
-0.017,-1.105,0.259,27.771,23.071,154.297
-0.012,-1.057,0.226,27.222,24.658,158.142
0.001,-1.020,0.216,25.452,24.475,161.804
0.015,-0.981,0.206,24.536,23.682,164.795
0.034,-0.963,0.202,26.001,22.522,166.565
0.053,-0.956,0.209,27.100,21.851,167.725
0.059,-0.962,0.208,28.381,21.484,169.861
0.068,-0.964,0.185,28.809,21.484,174.866
0.074,-0.944,0.171,27.771,21.301,182.861
0.099,-0.915,0.164,26.001,21.301,190.918
0.103,-0.890,0.135,24.719,20.752,198.120
0.139,-0.838,0.117,23.682,20.447,204.590
0.165,-0.789,0.095,24.170,18.372,209.595
0.183,-0.763,0.069,24.231,17.883,212.158
0.194,-0.756,0.061,20.203,17.761,213.928
0.202,-0.767,0.057,13.000,17.883,216.614
0.226,-0.771,0.074,3.967,17.822,220.703
0.238,-0.762,0.077,-3.235,17.700,229.004
0.252,-0.730,0.046,-6.287,18.250,238.342
0.287,-0.691,0.058,-7.751,19.470,246.033
0.291,-0.636,0.089,-8.301,18.982,253.052
0.323,-0.594,0.092,-7.202,21.606,261.780
0.338,-0.520,0.068,-6.836,25.024,273.071
0.385,-0.425,0.048,-8.179,27.344,285.278
0.417,-0.280,0.020,-9.705,28.137,296.692
0.465,-0.124,-0.025,-12.024,27.344,304.260
0.520,0.046,-0.038,-18.005,26.123,307.678
0.578,0.222,-0.046,-25.024,26.184,306.091
0.667,0.404,-0.042,-31.006,26.611,297.119
0.749,0.591,-0.039,-35.522,26.978,278.625
0.836,0.738,-0.031,-36.926,25.757,253.418
0.893,0.861,-0.022,-30.090,24.658,221.741

-1.085,-2.042,0.764,-96.252,-167.542,-382.751
-1.068,-2.464,1.045,-124.329,-139.832,-327.332
-0.959,-2.661,1.299,-145.386,-108.032,-257.812
-0.830,-2.738,1.401,-139.465,-78.613,-195.007
-0.682,-2.696,1.354,-113.464,-57.495,-146.301
-0.549,-2.612,1.189,-78.430,-45.410,-112.305
-0.443,-2.530,1.009,-50.964,-39.001,-85.693
-0.329,-2.439,0.903,-37.903,-34.607,-60.242
-0.220,-2.301,0.834,-30.090,-31.494,-35.522
-0.110,-2.125,0.774,-22.705,-28.748,-13.672
-0.005,-1.975,0.720,-15.381,-26.367,2.930
0.079,-1.869,0.673,-10.376,-23.010,16.296
0.153,-1.766,0.605,-8.667,-18.005,29.419
0.217,-1.635,0.539,-7.629,-10.315,42.786
0.285,-1.527,0.493,-5.981,-3.052,52.551
0.331,-1.437,0.459,-2.625,2.258,58.838
0.370,-1.359,0.417,2.136,6.714,62.805
0.390,-1.304,0.412,7.080,10.559,63.416
0.390,-1.278,0.417,11.475,14.160,62.988
0.379,-1.275,0.431,15.442,18.616,62.378
0.348,-1.292,0.449,19.104,22.583,61.584
0.300,-1.314,0.469,22.888,26.794,63.416
0.267,-1.339,0.472,26.367,31.982,67.688
0.223,-1.352,0.452,29.358,36.438,73.914
0.185,-1.352,0.430,31.128,40.649,82.031
0.161,-1.353,0.402,32.532,43.335,91.797
0.139,-1.330,0.375,33.447,44.678,101.501
0.117,-1.302,0.348,35.339,44.739,110.107
0.100,-1.273,0.354,38.269,44.006,117.065
0.089,-1.246,0.341,42.358,43.274,122.803
0.079,-1.214,0.322,47.119,42.236,127.014
0.074,-1.185,0.290,51.880,40.405,131.104
0.066,-1.161,0.256,55.176,37.415,136.292
0.077,-1.134,0.222,56.091,34.424,143.188
0.089,-1.095,0.194,54.138,31.555,150.879
0.106,-1.062,0.186,49.744,27.161,158.203
0.128,-1.037,0.204,45.044,22.949,164.917
0.153,-0.994,0.228,41.809,19.409,172.729
0.193,-0.964,0.231,41.260,17.822,179.993
0.208,-0.931,0.255,40.161,16.663,185.730
0.246,-0.889,0.255,37.476,17.883,190.735
0.275,-0.831,0.256,33.936,21.362,194.824
0.294,-0.781,0.279,31.433,27.954,197.571
0.307,-0.721,0.263,32.654,34.607,198.547
0.321,-0.693,0.207,36.438,39.124,198.486
0.337,-0.668,0.154,39.246,41.260,198.608
0.349,-0.657,0.085,39.429,39.734,200.317
0.363,-0.644,0.042,37.048,36.255,204.712
0.388,-0.628,0.049,33.386,31.189,210.144
0.410,-0.578,0.061,29.297,23.987,215.820
0.438,-0.519,0.072,26.917,19.531,222.168
0.464,-0.453,0.095,25.940,17.761,227.722
0.478,-0.380,0.086,25.696,16.968,232.300
0.483,-0.307,0.074,23.315,17.761,236.816
0.512,-0.244,0.050,18.005,20.752,240.540
0.542,-0.191,0.039,13.062,21.912,242.310
0.576,-0.126,0.029,12.817,19.958,242.004
0.613,-0.053,0.014,18.188,16.907,239.624
0.636,0.025,-0.009,25.879,13.489,236.572
0.666,0.118,-0.036,32.227,10.437,233.337

-1.176,-1.871,1.194,-56.885,-239.197,-415.710
-1.184,-2.134,1.596,-54.260,-205.872,-370.789
-1.264,-2.334,1.825,-27.283,-166.748,-332.520
-1.305,-2.604,1.849,8.057,-122.864,-300.354
-1.335,-2.863,1.633,37.109,-81.238,-266.663
-1.359,-3.024,1.325,55.298,-45.532,-221.375
-1.290,-3.038,1.039,61.096,-17.334,-165.466
-1.190,-2.903,0.817,58.289,-4.089,-108.765
-1.031,-2.670,0.641,47.546,-1.526,-54.321
-0.851,-2.388,0.532,31.250,-2.197,-6.348
-0.665,-2.089,0.468,14.954,-3.662,33.203
-0.469,-1.797,0.395,5.188,-2.930,64.514
-0.300,-1.543,0.309,2.991,-0.061,84.839
-0.171,-1.353,0.227,5.737,4.150,94.666
-0.047,-1.185,0.167,10.132,5.920,96.130
0.047,-1.075,0.120,16.663,4.456,91.187
0.124,-1.012,0.068,26.062,1.709,82.703
0.174,-0.972,0.038,35.095,-1.465,72.937
0.221,-0.956,0.025,42.786,-5.554,63.110
0.255,-0.960,0.029,49.377,-10.681,52.734
0.265,-0.968,0.037,55.176,-16.113,42.664
0.257,-0.989,0.055,59.570,-19.714,34.546
0.239,-1.018,0.092,60.913,-21.851,28.503
0.213,-1.056,0.138,59.021,-22.217,24.780
0.179,-1.091,0.202,54.810,-20.569,22.888
0.148,-1.121,0.255,50.232,-17.700,23.010
0.109,-1.157,0.284,47.852,-14.221,24.597
0.076,-1.172,0.296,46.997,-9.766,27.588
0.044,-1.212,0.295,45.532,-6.348,31.189
0.036,-1.212,0.295,41.931,-4.272,36.865
0.027,-1.190,0.299,39.185,-1.587,42.603
0.017,-1.181,0.277,39.551,0.732,47.058
0.012,-1.171,0.254,39.917,3.052,51.636
0.007,-1.133,0.231,39.124,4.639,56.885
0.005,-1.101,0.190,37.659,5.066,61.829
0.003,-1.073,0.166,34.607,4.578,66.406
0.006,-1.062,0.166,31.311,3.296,69.763
0.007,-1.074,0.146,28.931,1.648,71.838
0.004,-1.105,0.124,25.513,0.366,74.951
0.000,-1.133,0.127,21.118,-0.671,80.933
0.008,-1.146,0.144,17.517,-1.099,88.501
0.015,-1.151,0.143,15.869,-1.160,95.947
0.022,-1.137,0.129,14.099,-0.427,104.248
0.036,-1.113,0.121,10.986,0.366,112.305
0.050,-1.075,0.110,8.362,0.610,118.652
0.062,-1.040,0.094,6.958,-0.061,122.131
0.070,-1.024,0.089,6.042,-0.610,123.962
0.084,-1.030,0.081,4.150,-0.916,125.000
0.095,-1.035,0.048,0.793,-2.075,127.563
0.109,-1.024,0.030,-3.174,-3.296,131.714
0.126,-1.017,0.038,-6.470,-5.188,136.230
0.150,-1.005,0.056,-8.545,-7.324,141.724
0.162,-0.977,0.063,-10.376,-8.301,147.766
0.176,-0.984,0.120,-12.634,-7.812,153.076
0.189,-0.997,0.195,-13.672,-5.310,157.593
0.201,-1.004,0.224,-11.353,-1.526,162.048
0.203,-1.018,0.207,-8.423,4.578,167.419
0.201,-1.009,0.183,-10.376,11.047,174.561
0.206,-1.038,0.204,-16.602,18.066,183.167
0.211,-1.058,0.244,-22.339,25.085,193.848

-2.116,-2.013,0.868,39.612,-157.043,-626.038
-2.071,-2.631,0.758,78.674,-136.597,-568.298
-1.847,-2.974,0.725,112.732,-124.939,-482.361
-1.780,-3.212,0.661,129.395,-90.942,-397.949
-1.727,-3.256,0.352,130.066,-41.626,-317.078
-1.631,-3.135,0.133,100.586,4.944,-232.910
-1.483,-2.984,-0.052,55.603,35.095,-154.114
-1.308,-2.812,-0.155,9.216,53.040,-87.280
-1.112,-2.608,-0.145,-23.315,56.458,-34.058
-0.897,-2.419,-0.098,-34.729,48.096,3.418
-0.729,-2.267,-0.102,-26.855,33.569,28.564
-0.584,-2.134,-0.103,-11.047,15.808,47.302
-0.456,-1.994,-0.106,3.784,1.282,64.880
-0.324,-1.818,-0.099,14.526,-6.165,81.726
-0.202,-1.634,-0.083,19.653,-9.094,95.825
-0.111,-1.506,-0.072,20.935,-10.132,105.408
-0.039,-1.419,-0.071,18.982,-7.568,111.572
-0.015,-1.368,-0.078,16.418,-4.700,116.272
-0.032,-1.366,-0.057,13.428,-4.272,121.521
-0.070,-1.407,-0.031,8.423,-2.686,128.784
-0.057,-1.408,-0.009,-0.244,8.240,138.245
-0.077,-1.413,0.000,-7.446,20.020,149.170
-0.107,-1.420,-0.004,-11.353,26.001,161.255
-0.127,-1.397,0.006,-14.709,26.794,176.208
-0.156,-1.384,0.041,-19.714,24.475,191.772
-0.159,-1.367,0.105,-24.658,23.254,209.045
-0.164,-1.345,0.170,-27.466,25.574,226.074
-0.173,-1.314,0.161,-28.809,32.043,242.554
-0.183,-1.288,0.112,-31.189,41.992,260.376
-0.168,-1.214,0.073,-34.607,50.049,280.701
-0.126,-1.081,0.047,-39.490,57.190,298.950
-0.059,-0.961,0.040,-44.250,60.059,312.622
-0.010,-0.861,0.034,-49.805,59.814,320.923
0.046,-0.777,0.017,-57.007,59.143,325.684
0.082,-0.719,0.030,-65.552,59.021,328.369
0.123,-0.669,0.068,-73.608,59.509,330.200
0.186,-0.566,0.086,-79.163,62.805,332.153
0.259,-0.468,0.093,-80.750,65.308,331.055
0.292,-0.414,0.083,-77.881,66.772,326.355
0.340,-0.357,0.060,-74.646,68.115,320.801
0.386,-0.320,0.066,-71.594,66.284,316.040
0.402,-0.263,0.068,-65.979,65.063,310.364
0.449,-0.169,0.049,-57.068,64.941,304.016
0.512,-0.062,0.015,-44.678,62.439,295.410
0.576,0.038,-0.031,-31.494,58.350,282.410
0.610,0.099,-0.081,-19.897,52.979,265.869
0.621,0.131,-0.111,-10.864,47.119,248.779
0.632,0.139,-0.124,-4.578,41.992,233.276
0.640,0.157,-0.128,-0.366,37.598,219.971
0.678,0.224,-0.127,4.456,32.593,208.435
0.733,0.306,-0.134,11.597,25.635,196.533
0.771,0.365,-0.149,19.226,17.822,181.702
0.802,0.401,-0.161,25.208,11.536,164.673
0.844,0.434,-0.168,28.015,6.958,147.400
0.883,0.473,-0.171,29.236,3.357,130.005
0.912,0.495,-0.164,30.396,-0.305,112.183
0.927,0.485,-0.156,31.494,-3.784,94.116
0.938,0.457,-0.149,32.043,-6.531,78.125
0.941,0.418,-0.131,32.166,-9.338,64.148
0.944,0.380,-0.106,32.410,-12.573,51.819

-0.695,1.842,-0.816,139.099,-6.042,-665.771
-1.091,1.672,-0.957,153.687,-40.405,-725.647
-1.525,1.353,-0.906,152.893,-71.472,-774.048
-1.930,0.745,-0.598,139.404,-86.670,-808.594
-2.198,-0.001,-0.322,127.502,-76.477,-821.777
-2.439,-0.788,-0.250,118.958,-52.063,-812.927
-2.689,-1.653,-0.181,101.013,-36.072,-776.489
-2.808,-2.503,-0.027,64.819,-26.733,-701.904
-2.774,-3.244,0.035,19.714,-10.193,-591.797
-2.726,-3.846,0.063,-28.137,14.343,-455.872
-2.584,-4.000,0.050,-83.618,48.218,-301.086
-2.226,-3.749,-0.007,-138.428,81.726,-145.386
-1.765,-3.191,-0.034,-172.363,98.389,-19.104
-1.336,-2.669,0.012,-174.622,90.820,56.641
-1.023,-2.339,0.089,-144.897,64.026,86.426
-0.801,-2.148,0.123,-96.008,30.396,88.745
-0.637,-2.054,0.068,-44.006,-0.061,82.031
-0.511,-1.974,-0.022,-3.479,-22.766,77.454
-0.391,-1.878,-0.092,21.118,-36.865,79.712
-0.267,-1.739,-0.114,31.677,-44.128,88.318
-0.151,-1.604,-0.103,33.142,-44.983,98.999
-0.051,-1.486,-0.069,28.992,-41.199,109.375
0.018,-1.395,-0.047,22.644,-32.532,117.126
0.055,-1.326,-0.035,17.029,-22.156,121.460
0.068,-1.296,-0.031,13.611,-13.245,125.427
0.064,-1.269,-0.024,10.315,-6.531,130.920
0.074,-1.211,-0.017,6.287,-1.648,138.000
0.100,-1.127,0.005,3.052,1.831,144.592
0.130,-1.046,0.041,1.526,4.456,148.254
0.146,-1.002,0.065,0.793,8.057,147.766
0.146,-0.995,0.073,0.183,12.939,144.836
0.139,-0.982,0.069,0.977,17.029,141.907
0.135,-0.964,0.051,3.601,18.738,139.954
0.135,-0.962,0.044,5.554,18.066,138.977
0.115,-0.980,0.037,3.906,17.883,138.611
0.090,-1.028,0.009,-0.366,19.958,139.954
0.059,-1.086,-0.029,-6.348,23.254,144.592
0.036,-1.117,-0.048,-12.268,25.452,152.771
0.037,-1.119,-0.039,-18.494,24.353,164.307
0.043,-1.111,-0.008,-24.536,22.156,178.284
0.051,-1.099,0.004,-31.189,21.912,193.054
0.053,-1.121,0.019,-40.283,24.231,207.703
0.049,-1.131,0.044,-52.795,29.602,223.572
0.062,-1.086,0.063,-64.453,36.194,241.272
0.109,-0.998,0.079,-72.021,41.870,258.789
0.172,-0.899,0.084,-75.500,45.593,273.804
0.228,-0.810,0.098,-75.256,47.058,283.447
0.274,-0.738,0.103,-72.388,47.546,289.246
0.304,-0.702,0.104,-69.092,47.485,292.908
0.322,-0.673,0.111,-67.078,48.523,295.959
0.343,-0.625,0.109,-66.406,51.758,300.171
0.358,-0.581,0.098,-66.101,55.054,305.176
0.371,-0.540,0.078,-65.552,57.617,311.035
0.369,-0.487,0.060,-62.927,60.303,317.505
0.376,-0.393,0.038,-57.983,61.768,322.754
0.404,-0.265,0.005,-50.598,61.951,326.233
0.443,-0.137,-0.026,-40.466,60.547,326.965
0.473,-0.017,-0.050,-28.625,56.702,323.059
0.506,0.099,-0.066,-15.320,51.025,315.063
0.544,0.202,-0.084,-2.075,44.678,303.772

-1.016,0.868,-1.014,-15.137,-12.451,-581.604
-1.260,0.740,-0.863,-48.523,-43.579,-601.868
-1.427,0.577,-0.535,-81.726,-68.787,-617.554
-1.615,0.102,-0.183,-95.581,-84.351,-636.902
-1.838,-0.545,0.045,-89.417,-87.341,-655.090
-2.034,-1.031,0.130,-75.012,-86.975,-656.799
-2.188,-1.517,0.175,-52.795,-98.694,-632.812
-2.364,-2.269,0.302,-36.865,-111.023,-587.219
-2.501,-3.074,0.429,-45.654,-96.619,-514.954
-2.548,-3.678,0.505,-71.960,-57.312,-408.386
-2.413,-3.844,0.508,-98.999,-13.123,-272.644
-2.092,-3.601,0.450,-117.554,22.705,-134.033
-1.709,-3.135,0.386,-121.521,44.495,-22.278
-1.357,-2.689,0.268,-108.032,49.683,48.523
-1.081,-2.371,0.091,-80.811,39.185,83.435
-0.836,-2.132,-0.030,-49.988,15.564,95.764
-0.604,-1.980,-0.069,-21.362,-13.550,96.985
-0.408,-1.877,-0.057,1.770,-38.025,94.177
-0.234,-1.769,-0.020,17.761,-51.331,92.468
-0.097,-1.656,0.020,26.978,-52.917,92.468
0.007,-1.531,0.045,31.372,-44.800,94.299
0.076,-1.401,0.046,32.043,-31.250,96.985
0.092,-1.298,0.038,30.945,-17.822,98.633
0.079,-1.244,0.027,28.748,-6.775,100.464
0.050,-1.212,0.005,25.269,1.526,103.760
0.019,-1.195,-0.011,20.569,8.667,108.276
-0.010,-1.154,-0.011,13.794,15.259,113.464
-0.021,-1.116,0.006,6.104,20.874,118.347
-0.039,-1.110,0.015,-0.549,25.757,121.826
-0.074,-1.152,0.007,-4.517,30.151,123.962
-0.112,-1.185,0.002,-5.005,32.288,126.526
-0.123,-1.178,-0.002,-2.319,31.128,131.348
-0.119,-1.150,0.011,0.854,26.794,137.085
-0.115,-1.146,0.036,3.296,21.912,141.846
-0.114,-1.159,0.057,4.639,18.066,146.118
-0.115,-1.174,0.051,5.554,17.700,153.015
-0.110,-1.171,0.036,4.822,18.555,162.537
-0.099,-1.152,0.027,1.953,18.066,174.194
-0.085,-1.145,0.026,-2.991,17.212,187.744
-0.067,-1.127,0.029,-9.888,19.165,201.660
-0.044,-1.081,0.014,-17.212,23.376,215.393
-0.007,-1.027,-0.006,-23.682,27.649,228.333
0.022,-1.012,-0.023,-30.396,30.396,239.441
0.030,-1.011,-0.048,-37.476,33.508,249.512
0.030,-0.998,-0.065,-42.236,36.194,260.620
0.052,-0.922,-0.065,-43.274,35.522,273.315
0.108,-0.811,-0.066,-41.931,31.250,285.278
0.173,-0.694,-0.046,-40.100,25.940,293.640
0.248,-0.604,-0.022,-38.391,21.545,297.119
0.290,-0.555,0.000,-36.804,18.616,295.959
0.322,-0.535,0.028,-35.645,18.311,292.542
0.345,-0.501,0.040,-34.180,20.386,290.222
0.357,-0.464,0.021,-30.762,22.827,288.879
0.370,-0.446,0.012,-27.527,23.865,288.391
0.381,-0.409,-0.009,-25.269,23.682,289.612
0.393,-0.368,-0.034,-24.048,22.278,291.504
0.403,-0.334,-0.046,-24.475,20.386,293.457
0.415,-0.272,-0.059,-26.428,20.386,295.776
0.437,-0.190,-0.068,-26.245,21.179,296.753
0.458,-0.118,-0.077,-21.790,20.508,294.739

-2.389,-1.268,1.010,-178.589,-156.189,-586.792
-2.620,-1.905,1.197,-144.714,-157.898,-549.133
-2.787,-2.569,1.418,-121.094,-153.381,-484.009
-2.829,-3.056,1.616,-115.784,-121.460,-396.118
-2.771,-3.226,1.756,-117.004,-71.655,-298.096
-2.631,-3.203,1.807,-109.802,-27.710,-198.120
-2.448,-3.108,1.621,-93.689,10.010,-107.422
-2.206,-2.869,1.296,-73.364,39.856,-30.334
-1.872,-2.528,0.989,-51.331,50.049,30.884
-1.528,-2.249,0.734,-29.785,43.884,73.486
-1.228,-2.026,0.537,-10.437,30.884,100.159
-0.931,-1.816,0.410,5.249,16.174,117.432
-0.678,-1.634,0.322,18.188,4.822,126.465
-0.484,-1.501,0.259,27.954,-2.563,129.150
-0.348,-1.397,0.236,33.813,-6.531,127.686
-0.256,-1.324,0.247,35.889,-7.019,124.390
-0.207,-1.287,0.279,36.926,-5.188,120.850
-0.198,-1.251,0.327,37.903,-2.869,118.774
-0.210,-1.261,0.363,38.452,0.610,119.080
-0.238,-1.262,0.391,37.659,5.432,122.742
-0.255,-1.226,0.411,36.621,11.597,130.188
-0.256,-1.149,0.438,35.828,17.578,138.916
-0.252,-1.076,0.452,36.438,22.705,146.179
-0.259,-1.036,0.450,37.598,26.978,150.513
-0.262,-1.014,0.434,38.635,30.945,154.541
-0.265,-1.001,0.420,39.063,33.569,158.203
-0.266,-0.982,0.411,39.490,35.706,161.560
-0.286,-1.007,0.387,39.368,36.804,164.429
-0.329,-1.092,0.330,35.767,39.490,169.006
-0.374,-1.164,0.293,27.649,44.006,178.894
-0.378,-1.177,0.266,17.944,48.584,195.251
-0.336,-1.119,0.265,9.888,51.147,214.478
-0.279,-1.047,0.253,5.493,51.392,231.323
-0.236,-1.002,0.221,3.479,51.453,243.042
-0.211,-0.986,0.174,2.380,51.025,251.160
-0.193,-0.959,0.138,0.671,48.218,260.071
-0.151,-0.923,0.121,-1.587,43.213,269.470
-0.098,-0.893,0.119,-5.371,37.903,278.870
-0.060,-0.885,0.132,-8.972,32.715,287.109
-0.045,-0.881,0.152,-11.658,27.466,294.983
-0.005,-0.839,0.168,-14.038,22.339,305.603
0.042,-0.776,0.191,-17.029,19.958,316.406
0.104,-0.673,0.217,-21.545,21.423,324.951
0.199,-0.566,0.238,-26.001,26.123,329.956
0.249,-0.555,0.247,-27.283,30.212,329.590
0.217,-0.551,0.225,-25.574,33.142,328.918
0.229,-0.471,0.191,-22.644,32.166,333.618
0.283,-0.352,0.169,-19.226,26.550,341.125
0.345,-0.264,0.149,-14.832,18.616,346.069
0.385,-0.165,0.135,-11.597,11.902,346.680
0.437,-0.062,0.140,-9.338,8.423,342.773
0.502,0.041,0.152,-5.859,7.446,335.083
0.563,0.156,0.158,-0.732,7.507,323.120
0.620,0.247,0.162,7.080,7.874,307.251
0.663,0.277,0.190,16.296,7.690,288.513
0.702,0.312,0.212,24.414,9.460,268.982
0.759,0.367,0.207,30.151,12.451,250.366
0.843,0.453,0.178,34.790,15.747,231.384
0.933,0.561,0.118,39.124,18.066,208.984
1.027,0.680,0.040,45.166,17.761,181.641

-0.549,1.476,-1.010,-51.208,83.252,-589.722
-0.846,1.324,-1.159,-115.784,47.913,-615.112
-1.156,1.253,-0.953,-192.444,17.151,-633.850
-1.370,1.261,-0.333,-263.550,-6.653,-652.100
-1.566,1.277,0.391,-306.458,-33.813,-678.467
-1.849,0.836,0.863,-295.654,-68.970,-719.055
-2.461,-0.389,0.990,-232.544,-102.539,-767.395
-3.162,-1.810,0.694,-152.954,-122.681,-787.354
-3.714,-3.139,0.638,-100.525,-147.888,-724.426
-3.684,-3.999,1.382,-98.145,-166.687,-572.083
-3.226,-4.000,2.190,-123.718,-125.183,-383.789
-2.876,-4.000,2.343,-133.362,-29.541,-212.463
-2.660,-3.641,1.977,-117.493,64.209,-71.899
-2.312,-3.010,1.349,-90.271,119.995,39.001
-1.865,-2.403,0.827,-63.904,132.690,112.610
-1.403,-1.928,0.490,-36.682,112.732,146.484
-1.006,-1.619,0.324,-6.104,71.167,153.137
-0.676,-1.473,0.225,23.560,26.978,146.973
-0.443,-1.377,0.191,45.105,-4.150,137.024
-0.224,-1.262,0.156,56.946,-17.578,126.709
-0.062,-1.155,0.113,63.293,-18.494,116.516
0.070,-1.057,0.084,64.697,-15.259,104.614
0.129,-0.992,0.095,63.416,-11.719,91.736
0.156,-0.951,0.116,61.035,-9.155,79.712
0.150,-0.944,0.136,58.228,-7.507,70.496
0.121,-0.948,0.169,52.856,-6.409,64.697
0.090,-0.979,0.210,45.166,-2.808,61.951
0.049,-0.995,0.241,36.682,2.747,62.317
0.009,-0.991,0.269,29.175,8.240,64.636
-0.028,-0.959,0.323,25.391,11.780,67.749
-0.030,-0.929,0.349,25.818,15.442,69.031
-0.082,-0.967,0.339,27.222,18.127,66.284
-0.148,-1.046,0.330,27.771,20.325,63.782
-0.193,-1.098,0.318,29.419,21.301,64.636
-0.226,-1.143,0.302,33.630,18.433,68.176
-0.270,-1.244,0.292,38.879,13.550,72.998
-0.326,-1.343,0.293,42.664,8.789,81.299
-0.363,-1.405,0.298,44.189,5.249,95.703
-0.370,-1.437,0.309,43.335,3.479,114.746
-0.375,-1.452,0.328,41.138,3.662,135.254
-0.392,-1.486,0.338,38.696,7.141,156.372
-0.429,-1.541,0.340,36.194,12.085,178.772
-0.465,-1.583,0.325,34.790,15.137,205.627
-0.476,-1.589,0.307,36.133,15.198,235.413
-0.469,-1.536,0.286,39.368,12.085,266.846
-0.438,-1.478,0.263,40.955,7.812,297.974
-0.422,-1.424,0.253,40.283,4.333,327.637
-0.409,-1.351,0.235,36.987,3.357,356.384
-0.393,-1.233,0.212,31.128,4.761,383.301
-0.393,-1.136,0.151,22.461,9.644,408.875
-0.436,-1.043,0.086,10.132,15.198,434.326
-0.464,-0.876,0.029,-2.075,16.113,463.074
-0.422,-0.611,-0.000,-14.404,11.902,492.798
-0.293,-0.318,0.008,-26.672,4.578,515.991
-0.132,-0.045,0.008,-35.339,-2.625,527.039
0.040,0.218,0.021,-39.673,-6.958,523.254
0.195,0.409,0.047,-38.147,-11.475,505.798
0.316,0.532,0.088,-29.419,-16.296,479.065
0.394,0.611,0.150,-14.832,-19.226,445.190
0.464,0.679,0.204,3.723,-20.203,408.508

1.198,1.120,0.206,39.001,16.541,71.655
1.167,1.023,0.192,39.490,22.156,32.654
1.110,0.881,0.164,40.649,26.306,-1.099
1.053,0.734,0.140,41.077,28.503,-27.405
0.995,0.582,0.115,41.687,27.832,-46.082
0.951,0.436,0.086,41.626,24.719,-57.678
0.928,0.312,0.057,39.063,21.240,-63.538
0.920,0.203,0.036,34.607,18.127,-65.308
0.912,0.107,0.029,29.053,14.832,-64.209
0.904,0.021,0.034,22.400,12.939,-61.401
0.908,-0.036,0.036,15.442,12.451,-56.274
0.908,-0.077,0.034,9.521,12.329,-50.171
0.905,-0.109,0.036,5.310,11.230,-44.128
0.906,-0.128,0.040,2.502,9.216,-37.720
0.901,-0.141,0.041,1.282,6.775,-31.372
0.906,-0.137,0.057,0.549,3.906,-24.719
0.926,-0.118,0.097,-0.244,1.465,-17.578
0.937,-0.107,0.132,-0.610,0.000,-11.658
0.942,-0.090,0.149,-0.854,0.305,-6.531
0.949,-0.063,0.141,-0.488,2.014,-2.686
0.962,-0.037,0.113,0.427,3.540,-0.244
0.974,-0.010,0.109,1.648,2.991,1.099
0.979,-0.007,0.118,2.808,1.282,1.770
0.979,-0.003,0.121,3.723,-0.061,2.441
0.978,0.005,0.118,4.028,-0.793,2.930
0.978,0.014,0.104,4.700,-0.610,2.991
0.983,0.027,0.087,4.944,-0.366,2.625
0.991,0.035,0.085,4.578,-1.282,2.014
1.000,0.043,0.090,3.235,-2.380,1.404
1.003,0.051,0.097,1.343,-3.418,0.732
1.003,0.055,0.102,-0.183,-4.089,-0.122
1.004,0.055,0.107,-1.709,-4.700,-0.977
1.000,0.026,0.128,-3.174,-4.700,-1.770
0.998,0.009,0.141,-5.798,-3.540,-1.648
0.997,0.015,0.154,-8.606,-1.770,-0.427
1.011,0.031,0.170,-10.681,-0.549,1.099
1.023,0.047,0.179,-11.047,0.488,1.709
1.034,0.058,0.182,-9.949,1.099,1.099
1.039,0.072,0.186,-7.935,1.465,-0.488
1.041,0.079,0.189,-5.005,2.075,-2.625
1.036,0.077,0.178,-1.526,2.625,-5.249
1.026,0.070,0.157,0.977,3.967,-8.118
1.015,0.062,0.133,2.625,4.822,-10.498
1.008,0.053,0.116,3.235,4.700,-11.841
1.002,0.047,0.104,2.563,4.089,-13.000
1.000,0.041,0.098,1.160,4.395,-13.794
0.990,0.020,0.093,-0.427,5.188,-14.709
0.973,-0.012,0.092,-1.892,5.981,-15.076
0.962,-0.034,0.091,-3.784,6.775,-14.160
0.956,-0.043,0.087,-5.554,7.141,-12.207
0.958,-0.047,0.088,-6.226,6.531,-10.193
0.957,-0.047,0.091,-5.920,5.676,-8.484
0.961,-0.044,0.100,-5.249,4.211,-7.080
0.967,-0.039,0.111,-4.517,2.808,-5.920
0.973,-0.029,0.114,-3.418,2.136,-5.432
0.977,-0.022,0.108,-2.563,2.319,-5.676
0.977,-0.020,0.099,-2.319,2.563,-6.653
0.978,-0.013,0.100,-2.014,3.052,-7.690
0.986,0.001,0.106,-1.770,2.686,-9.033
0.993,0.015,0.108,-0.854,2.380,-10.925

1.368,0.906,0.533,44.495,28.809,-71.045
1.363,1.015,0.541,61.157,38.391,-107.727
1.286,1.011,0.498,71.350,54.016,-148.193
1.156,0.967,0.387,72.815,73.730,-186.768
1.029,0.939,0.249,68.787,92.712,-219.666
0.896,0.945,0.161,62.256,108.154,-250.427
0.814,1.011,0.129,54.382,118.652,-277.405
0.702,1.075,0.055,46.021,125.793,-305.786
0.568,1.100,-0.008,31.982,131.348,-337.463
0.398,1.124,-0.020,13.550,139.160,-371.277
0.164,1.171,-0.019,-3.296,150.146,-408.508
0.003,1.161,-0.082,-21.057,160.889,-447.815
-0.190,1.141,-0.242,-42.786,164.917,-484.924
-0.412,1.125,-0.399,-71.289,156.372,-517.090
-0.613,1.044,-0.597,-106.201,139.893,-545.532
-0.935,0.812,-0.812,-147.766,121.033,-570.129
-1.198,0.655,-0.821,-195.923,100.159,-585.022
-1.382,0.541,-0.540,-244.934,75.317,-591.736
-1.490,0.398,-0.149,-283.447,42.114,-591.980
-1.611,0.177,0.156,-298.035,12.268,-592.529
-1.801,-0.156,0.266,-286.743,-16.296,-596.008
-2.140,-0.690,0.332,-259.888,-52.307,-595.947
-2.447,-1.349,0.534,-235.413,-88.623,-577.576
-2.645,-1.987,0.964,-216.187,-113.892,-531.433
-2.700,-2.474,1.482,-197.083,-119.690,-459.412
-2.674,-2.919,1.826,-174.438,-99.487,-369.812
-2.655,-3.196,1.945,-151.123,-57.312,-268.738
-2.538,-3.214,1.884,-127.991,-6.897,-160.522
-2.325,-2.955,1.669,-99.304,35.950,-58.228
-2.015,-2.539,1.300,-63.904,62.012,25.513
-1.689,-2.164,0.909,-29.053,65.735,83.923
-1.351,-1.866,0.572,-0.854,52.856,117.126
-1.059,-1.656,0.335,23.437,26.611,134.949
-0.759,-1.490,0.194,43.884,-2.502,144.348
-0.519,-1.385,0.118,59.265,-26.672,144.714
-0.356,-1.311,0.093,69.092,-42.969,139.221
-0.235,-1.245,0.104,74.097,-49.988,131.592
-0.152,-1.211,0.138,75.806,-48.950,123.169
-0.125,-1.210,0.177,75.134,-42.114,113.953
-0.152,-1.237,0.217,72.327,-31.677,106.445
-0.203,-1.280,0.241,67.688,-20.874,104.248
-0.249,-1.310,0.246,62.500,-12.390,109.619
-0.278,-1.297,0.258,56.519,-6.531,120.483
-0.314,-1.312,0.282,49.133,-1.770,131.653
-0.385,-1.395,0.300,40.649,4.272,143.250
-0.469,-1.448,0.312,33.508,11.780,158.264
-0.517,-1.424,0.324,30.090,15.930,179.382
-0.532,-1.363,0.329,29.419,15.686,202.637
-0.539,-1.341,0.314,28.564,14.893,223.450
-0.560,-1.342,0.293,26.062,15.320,242.126
-0.601,-1.355,0.258,23.193,18.188,261.292
-0.596,-1.307,0.226,20.935,21.179,283.813
-0.569,-1.204,0.186,20.142,20.203,307.190
-0.513,-1.055,0.151,18.799,15.869,327.942
-0.439,-0.927,0.126,14.587,10.681,342.041
-0.361,-0.807,0.109,5.493,6.470,349.854
-0.282,-0.724,0.078,-6.531,6.470,354.614
-0.213,-0.695,0.053,-20.996,10.254,357.483
-0.177,-0.734,0.025,-36.438,16.724,360.413
-0.185,-0.771,0.011,-52.307,25.452,365.723

1.527,1.547,0.279,-62.500,29.297,-9.338
1.561,1.887,0.371,-88.074,36.499,-52.185
1.469,2.045,0.409,-105.164,61.279,-119.080
1.184,1.936,0.387,-103.516,99.487,-208.008
0.797,1.687,0.287,-83.496,135.315,-300.964
0.442,1.449,0.146,-52.490,152.527,-377.075
0.120,1.290,-0.031,-18.799,146.973,-430.603
-0.145,1.165,-0.188,6.104,123.047,-465.454
-0.344,1.006,-0.250,16.418,100.159,-488.525
-0.497,0.898,-0.326,16.785,90.271,-504.883
-0.648,0.794,-0.457,12.878,88.440,-521.301
-0.768,0.707,-0.637,3.723,84.290,-536.743
-0.849,0.635,-0.789,-15.686,71.106,-547.791
-0.913,0.583,-0.872,-47.974,47.791,-553.528
-0.999,0.545,-0.855,-88.074,20.569,-558.044
-1.105,0.540,-0.732,-125.122,-5.737,-564.575
-1.232,0.439,-0.408,-151.001,-33.569,-574.829
-1.418,0.111,0.045,-156.372,-58.777,-588.928
-1.627,-0.437,0.458,-137.573,-75.012,-606.750
-1.886,-1.000,0.721,-97.290,-86.182,-619.080
-2.175,-1.530,0.802,-46.753,-100.769,-609.558
-2.437,-2.225,0.795,-10.193,-111.450,-573.303
-2.640,-2.910,0.729,-7.446,-98.022,-509.033
-2.724,-3.421,0.728,-36.377,-66.833,-413.452
-2.582,-3.546,0.808,-79.895,-30.212,-292.908
-2.276,-3.373,0.919,-114.136,2.991,-169.739
-1.952,-3.051,0.917,-121.643,29.297,-67.322
-1.683,-2.755,0.747,-103.027,45.349,4.822
-1.441,-2.472,0.481,-69.702,46.204,53.955
-1.194,-2.203,0.236,-35.645,32.410,88.745
-0.931,-1.970,0.055,-8.850,11.047,113.586
-0.651,-1.746,-0.055,8.240,-9.644,130.066
-0.411,-1.519,-0.091,18.311,-27.466,137.512
-0.203,-1.330,-0.087,24.231,-40.039,137.329
-0.034,-1.161,-0.047,26.428,-45.654,129.761
0.089,-1.037,0.003,26.733,-42.603,115.417
0.155,-0.959,0.036,26.794,-34.363,96.069
0.135,-0.956,0.055,26.794,-25.269,75.195
0.082,-1.016,0.075,27.283,-19.714,58.167
0.015,-1.103,0.108,27.710,-17.700,49.561
-0.061,-1.192,0.156,25.330,-14.160,47.668
-0.134,-1.253,0.206,20.142,-7.263,51.331
-0.187,-1.306,0.249,14.343,0.183,59.326
-0.266,-1.375,0.253,9.949,8.118,69.519
-0.337,-1.407,0.256,6.226,15.808,83.252
-0.369,-1.396,0.273,2.930,20.935,100.769
-0.379,-1.380,0.293,0.549,23.010,118.713
-0.398,-1.377,0.288,0.122,25.391,135.132
-0.425,-1.390,0.264,0.000,28.625,150.879
-0.436,-1.395,0.233,-0.061,31.067,167.480
-0.440,-1.378,0.206,0.732,31.677,186.279
-0.426,-1.360,0.179,1.099,30.762,205.383
-0.403,-1.341,0.182,0.366,29.114,223.755
-0.386,-1.312,0.181,1.038,26.611,241.699
-0.375,-1.288,0.203,2.319,24.048,258.667
-0.375,-1.275,0.215,2.869,23.865,275.696
-0.373,-1.248,0.189,1.831,26.428,294.250
-0.364,-1.190,0.153,-1.099,29.663,315.308
-0.330,-1.115,0.117,-6.042,32.410,337.341
-0.292,-1.002,0.078,-13.611,35.583,358.276

1.133,1.564,0.297,-79.224,81.543,-224.304
0.999,1.766,0.312,-90.088,104.187,-293.579
0.723,1.791,0.239,-100.647,124.817,-372.314
0.352,1.649,0.016,-106.140,138.611,-449.036
0.014,1.463,-0.330,-104.797,135.986,-512.024
-0.219,1.189,-0.760,-100.952,108.032,-556.274
-0.517,0.768,-1.195,-103.516,59.021,-582.764
-0.879,0.380,-1.494,-122.864,4.395,-586.487
-0.990,0.255,-1.395,-164.551,-43.152,-570.374
-0.972,0.377,-0.923,-202.209,-94.727,-544.250
-0.892,0.590,-0.292,-220.642,-143.127,-528.564
-0.895,0.659,0.053,-211.060,-174.377,-538.208
-1.113,0.496,0.025,-177.490,-198.303,-565.979
-1.485,0.176,-0.156,-141.785,-223.267,-593.689
-1.893,-0.240,-0.189,-121.033,-251.648,-605.957
-2.191,-0.619,0.017,-118.286,-274.475,-591.858
-2.390,-1.078,0.379,-122.681,-285.095,-556.580
-2.504,-1.662,0.826,-129.150,-274.902,-506.409
-2.494,-2.307,1.153,-131.104,-237.305,-437.012
-2.466,-2.706,1.430,-131.409,-178.162,-346.985
-2.407,-2.752,1.701,-135.742,-113.098,-244.629
-2.273,-2.656,1.776,-138.733,-51.086,-144.958
-2.062,-2.392,1.630,-135.315,-3.845,-61.340
-1.847,-2.125,1.419,-116.577,13.855,-3.540
-1.585,-1.915,1.271,-85.083,-1.099,31.006
-1.272,-1.828,1.206,-49.377,-34.790,52.979
-0.935,-1.747,1.197,-16.663,-65.308,69.092
-0.590,-1.634,1.115,8.240,-81.238,81.848
-0.326,-1.529,1.007,25.269,-83.679,90.027
-0.089,-1.338,0.911,33.813,-73.914,95.398
0.072,-1.184,0.840,38.208,-59.204,94.971
0.151,-1.118,0.777,40.833,-40.649,88.623
0.152,-1.144,0.692,42.603,-19.470,79.224
0.086,-1.224,0.646,44.373,-1.221,71.350
0.008,-1.307,0.603,46.570,12.756,69.397
-0.070,-1.370,0.557,50.476,22.766,73.730
-0.137,-1.382,0.510,54.993,29.785,81.604
-0.196,-1.367,0.474,59.326,34.485,90.454
-0.251,-1.344,0.445,61.523,37.415,99.426
-0.301,-1.352,0.417,60.974,39.490,108.948
-0.355,-1.348,0.388,58.228,41.016,119.324
-0.389,-1.335,0.396,52.917,41.687,131.226
-0.407,-1.315,0.408,46.997,41.321,145.264
-0.396,-1.281,0.425,42.419,41.748,160.156
-0.373,-1.226,0.429,39.795,42.542,174.011
-0.354,-1.181,0.402,38.391,44.312,186.096
-0.339,-1.163,0.352,37.048,47.791,196.838
-0.324,-1.158,0.319,34.607,50.476,207.031
-0.312,-1.145,0.294,32.410,51.208,217.712
-0.288,-1.098,0.293,30.823,50.171,229.797
-0.244,-1.014,0.275,29.724,49.133,241.028
-0.208,-0.979,0.234,27.466,48.096,248.840
-0.192,-0.971,0.189,22.095,47.546,254.761
-0.161,-0.933,0.134,14.160,47.485,262.207
-0.119,-0.894,0.082,5.127,46.631,270.203
-0.075,-0.853,0.059,-5.249,43.884,278.076
-0.008,-0.807,0.089,-16.663,39.612,285.095
0.062,-0.734,0.148,-26.489,36.438,291.382
0.149,-0.665,0.212,-32.654,35.706,295.288
0.215,-0.620,0.241,-36.194,38.086,294.312

1.405,1.158,0.368,-1.892,21.973,-64.209
1.384,1.343,0.404,-0.671,30.701,-102.051
1.279,1.433,0.378,1.953,47.852,-149.719
1.129,1.415,0.300,7.568,70.923,-206.848
0.928,1.302,0.183,18.738,92.957,-263.855
0.701,1.159,0.053,33.020,108.582,-313.416
0.503,1.083,-0.047,47.607,114.685,-351.440
0.332,1.019,-0.144,60.669,112.915,-379.883
0.172,0.937,-0.230,66.162,108.582,-403.076
0.038,0.907,-0.312,58.838,106.506,-421.021
-0.074,0.956,-0.391,41.260,106.262,-437.012
-0.177,0.965,-0.461,14.771,104.065,-455.505
-0.334,0.969,-0.586,-14.771,103.577,-476.440
-0.481,0.994,-0.772,-49.438,97.717,-496.399
-0.608,1.002,-0.950,-92.041,76.538,-512.817
-0.781,1.029,-1.029,-141.052,42.847,-527.161
-1.016,0.994,-0.886,-196.472,6.409,-543.884
-1.257,0.897,-0.542,-255.432,-23.193,-565.613
-1.476,0.805,-0.106,-300.476,-44.250,-591.797
-1.741,0.472,0.364,-308.594,-67.139,-621.460
-2.098,-0.264,0.827,-277.832,-98.328,-651.428
-2.528,-1.391,1.243,-226.746,-123.657,-669.617
-3.009,-2.558,1.478,-173.828,-135.071,-646.179
-3.288,-3.543,1.627,-128.601,-140.320,-553.223
-3.233,-4.000,1.946,-108.582,-129.211,-401.306
-2.810,-3.843,2.242,-112.122,-86.426,-229.187
-2.352,-3.451,2.171,-115.479,-20.081,-81.787
-2.007,-3.021,1.760,-103.455,42.969,20.752
-1.658,-2.560,1.297,-79.041,73.486,90.942
-1.290,-2.143,0.928,-49.133,69.336,135.315
-0.931,-1.826,0.637,-17.639,45.471,159.241
-0.595,-1.573,0.413,10.559,16.113,169.006
-0.289,-1.361,0.238,32.471,-8.667,167.847
-0.042,-1.192,0.126,47.607,-28.320,157.715
0.144,-1.052,0.067,56.641,-41.870,141.785
0.284,-0.940,0.053,59.998,-47.485,121.887
0.373,-0.889,0.070,58.838,-45.898,99.304
0.382,-0.871,0.101,53.955,-39.307,75.073
0.336,-0.900,0.132,47.424,-30.151,53.833
0.270,-0.958,0.171,40.222,-23.437,39.795
0.202,-1.030,0.222,33.569,-18.188,33.508
0.134,-1.099,0.292,27.283,-11.841,32.654
0.047,-1.172,0.354,21.240,-3.662,35.767
-0.036,-1.214,0.405,16.418,5.554,41.931
-0.085,-1.213,0.457,14.771,13.123,52.185
-0.110,-1.165,0.470,15.930,17.517,63.843
-0.126,-1.127,0.473,18.921,20.020,72.571
-0.142,-1.072,0.452,23.071,20.935,77.759
-0.146,-1.022,0.435,27.527,19.043,80.750
-0.146,-1.000,0.415,29.663,15.991,82.458
-0.141,-1.019,0.395,29.785,15.564,83.923
-0.149,-1.075,0.367,28.625,18.005,85.510
-0.163,-1.121,0.332,28.076,21.790,88.867
-0.168,-1.154,0.316,27.710,23.865,95.642
-0.177,-1.206,0.311,27.222,24.597,105.469
-0.197,-1.276,0.305,26.001,25.513,117.493
-0.216,-1.316,0.296,23.743,27.954,133.301
-0.209,-1.300,0.288,21.240,30.579,153.687
-0.179,-1.254,0.264,19.775,32.715,175.537
-0.138,-1.211,0.236,18.250,34.668,195.923

-2.277,-1.694,0.534,13.855,-195.496,-656.311
-2.639,-2.621,0.700,31.738,-204.773,-610.474
-2.749,-3.344,0.910,18.921,-184.265,-513.855
-2.594,-3.651,1.182,-15.564,-138.184,-377.136
-2.257,-3.531,1.266,-52.856,-72.510,-229.858
-1.930,-3.153,1.157,-77.332,-7.446,-102.234
-1.623,-2.693,0.945,-82.397,34.302,-6.714
-1.319,-2.246,0.652,-72.998,52.124,56.091
-1.027,-1.869,0.393,-55.176,47.180,89.172
-0.728,-1.587,0.230,-34.058,26.001,99.609
-0.470,-1.412,0.150,-11.536,-1.404,95.764
-0.258,-1.298,0.139,7.935,-27.039,84.595
-0.086,-1.239,0.137,21.667,-44.617,71.960
0.033,-1.203,0.138,28.442,-51.697,61.096
0.128,-1.161,0.140,28.687,-50.415,52.673
0.186,-1.135,0.149,25.696,-44.617,46.143
0.209,-1.107,0.182,21.790,-37.354,41.138
0.210,-1.071,0.226,18.616,-30.273,38.147
0.205,-1.056,0.265,16.724,-22.339,36.316
0.171,-1.072,0.269,15.198,-12.268,35.400
0.122,-1.095,0.264,12.695,-1.526,35.767
0.079,-1.093,0.269,9.827,7.751,38.757
0.050,-1.079,0.294,7.568,15.198,42.603
0.014,-1.073,0.303,6.836,22.156,44.983
-0.024,-1.079,0.298,6.958,27.649,47.058
-0.063,-1.077,0.288,7.446,31.433,49.255
-0.093,-1.075,0.275,8.606,33.203,51.331
-0.096,-1.057,0.272,10.620,32.959,53.284
-0.135,-1.039,0.264,13.000,30.457,54.688
-0.155,-1.034,0.242,14.832,27.344,56.396
-0.169,-1.047,0.225,14.038,24.658,59.204
-0.187,-1.076,0.214,11.780,22.888,62.683
-0.193,-1.093,0.204,8.606,22.522,67.688
-0.190,-1.094,0.200,6.042,22.705,74.036
-0.194,-1.131,0.199,3.052,23.376,80.017
-0.201,-1.166,0.200,0.305,24.597,86.731
-0.197,-1.175,0.202,-1.709,24.963,95.764
-0.177,-1.169,0.207,-3.235,24.170,106.140
-0.150,-1.164,0.216,-4.395,23.743,116.455
-0.114,-1.156,0.228,-6.165,24.719,125.671
-0.083,-1.164,0.232,-8.789,26.978,133.789
-0.064,-1.176,0.228,-11.169,30.212,141.968
-0.041,-1.179,0.219,-13.000,33.813,150.757
-0.018,-1.189,0.208,-14.465,36.560,159.790
-0.002,-1.186,0.196,-15.564,39.063,169.678
0.021,-1.177,0.182,-16.174,41.016,181.458
0.044,-1.165,0.172,-17.761,41.992,194.336
0.060,-1.158,0.173,-21.667,43.640,207.092
0.072,-1.131,0.172,-26.978,46.753,221.069
0.094,-1.084,0.163,-32.593,50.842,236.816
0.113,-1.046,0.154,-38.696,55.481,252.502
0.124,-0.992,0.135,-46.692,62.256,268.616
0.160,-0.888,0.114,-56.702,70.557,285.156
0.211,-0.782,0.089,-66.406,78.430,299.927
0.243,-0.744,0.053,-75.684,86.182,310.669
0.248,-0.745,0.050,-85.571,93.140,318.665
0.242,-0.733,0.059,-91.919,99.670,327.759
0.238,-0.662,0.060,-89.661,101.929,337.830
0.282,-0.563,0.059,-79.529,98.083,347.473
0.349,-0.448,0.055,-65.430,90.210,353.638

-2.379,-1.228,0.555,-109.619,-169.312,-727.539
-2.641,-1.968,0.826,-117.126,-151.611,-689.209
-2.732,-2.713,0.964,-115.784,-136.414,-613.953
-2.661,-3.333,1.088,-114.075,-131.531,-504.517
-2.617,-3.557,1.386,-122.742,-126.343,-370.056
-2.338,-3.505,1.258,-143.555,-99.854,-228.394
-2.184,-3.042,1.818,-171.021,-59.570,-99.060
-1.960,-2.466,1.904,-165.833,2.380,-1.282
-1.650,-2.184,1.569,-126.526,57.678,69.214
-1.282,-1.955,1.063,-78.491,83.130,121.338
-0.937,-1.657,0.806,-49.133,78.247,152.222
-0.628,-1.426,0.638,-24.536,59.143,163.330
-0.388,-1.248,0.522,2.869,31.860,163.635
-0.178,-1.094,0.473,28.320,5.127,158.691
0.009,-0.975,0.470,46.509,-14.526,148.499
0.151,-0.881,0.495,57.800,-24.841,134.216
0.227,-0.847,0.514,62.683,-23.926,116.211
0.239,-0.868,0.520,61.890,-12.878,95.947
0.203,-0.927,0.513,58.533,3.357,77.637
0.143,-1.004,0.481,54.810,20.020,65.430
0.085,-1.067,0.435,51.514,32.410,61.768
0.039,-1.105,0.398,47.058,40.771,65.063
0.008,-1.133,0.380,40.344,47.485,71.716
-0.016,-1.139,0.373,31.250,54.260,78.918
-0.044,-1.153,0.387,22.461,62.439,84.900
-0.076,-1.156,0.405,15.442,70.984,89.478
-0.097,-1.162,0.434,11.475,76.843,93.628
-0.113,-1.149,0.435,10.071,80.200,97.778
-0.125,-1.168,0.454,11.658,79.956,102.112
-0.151,-1.182,0.468,14.954,77.332,106.506
-0.160,-1.194,0.476,18.738,75.745,113.159
-0.170,-1.202,0.466,23.315,74.768,120.972
-0.163,-1.200,0.437,27.893,74.402,130.615
-0.151,-1.176,0.408,31.311,74.036,141.724
-0.137,-1.142,0.379,32.776,73.730,152.649
-0.119,-1.114,0.350,32.837,73.486,163.574
-0.106,-1.089,0.325,31.189,73.608,174.622
-0.095,-1.067,0.306,28.992,73.792,185.303
-0.070,-1.042,0.302,26.489,74.280,195.557
-0.042,-1.023,0.319,24.719,75.806,205.200
-0.017,-0.994,0.308,24.353,78.796,214.294
0.014,-0.968,0.263,25.635,80.933,223.083
0.043,-0.948,0.230,26.917,80.139,232.239
0.071,-0.936,0.224,27.039,77.576,241.333
0.093,-0.899,0.216,26.245,76.538,250.671
0.119,-0.854,0.196,25.696,76.416,260.559
0.144,-0.814,0.173,25.024,76.416,269.836
0.164,-0.796,0.166,23.987,76.965,278.625
0.169,-0.744,0.160,22.278,77.820,288.086
0.182,-0.644,0.145,20.996,78.186,298.828
0.229,-0.532,0.130,21.484,77.271,309.814
0.307,-0.399,0.086,22.522,75.867,318.665
0.396,-0.242,0.025,24.048,72.937,322.693
0.487,-0.088,-0.037,27.039,66.956,320.984
0.567,0.049,-0.081,31.128,58.411,312.927
0.651,0.156,-0.116,35.828,48.767,299.438
0.726,0.264,-0.129,40.405,39.063,281.799
0.792,0.357,-0.130,45.105,28.748,261.230
0.861,0.427,-0.145,47.668,19.409,238.953
0.923,0.486,-0.161,46.692,12.329,215.454

-1.999,-1.541,0.601,-45.593,-226.624,-589.661
-2.216,-2.052,0.923,-28.992,-231.323,-552.490
-2.322,-2.618,1.322,-27.710,-218.567,-482.117
-2.270,-3.044,1.694,-43.213,-175.354,-379.883
-2.098,-3.139,1.884,-64.209,-101.135,-255.920
-1.862,-2.935,1.828,-76.965,-13.794,-132.935
-1.603,-2.565,1.476,-75.012,65.979,-29.663
-1.379,-2.128,1.017,-61.707,114.197,45.471
-1.130,-1.730,0.603,-43.518,126.221,91.919
-0.858,-1.399,0.304,-22.949,110.291,111.633
-0.608,-1.161,0.135,-1.709,74.646,110.779
-0.406,-1.029,0.064,18.311,32.349,96.130
-0.262,-0.987,0.051,33.630,-4.822,74.646
-0.180,-0.991,0.075,42.114,-31.311,52.307
-0.127,-1.015,0.105,44.617,-44.678,33.875
-0.093,-1.042,0.148,43.030,-46.387,20.325
-0.075,-1.061,0.180,39.185,-41.138,10.010
-0.090,-1.102,0.214,35.400,-33.875,4.089
-0.135,-1.176,0.249,31.555,-27.283,3.052
-0.184,-1.247,0.289,26.611,-19.592,7.629
-0.222,-1.279,0.329,20.813,-10.254,17.395
-0.252,-1.275,0.361,16.724,-1.282,28.931
-0.287,-1.274,0.381,13.611,6.348,40.100
-0.315,-1.277,0.388,11.292,13.916,50.476
-0.341,-1.282,0.400,9.277,19.653,59.448
-0.350,-1.271,0.414,9.705,22.705,67.566
-0.352,-1.258,0.419,13.977,22.461,74.951
-0.355,-1.251,0.430,20.630,19.226,81.177
-0.346,-1.244,0.431,28.137,14.709,87.463
-0.331,-1.211,0.421,34.912,11.536,94.788
-0.307,-1.165,0.419,39.490,10.254,102.295
-0.288,-1.135,0.414,41.260,12.390,108.582
-0.278,-1.142,0.386,40.405,17.151,114.380
-0.275,-1.157,0.348,37.292,23.560,120.911
-0.276,-1.153,0.297,32.166,30.090,129.028
-0.261,-1.131,0.243,26.794,34.973,139.282
-0.240,-1.095,0.201,20.874,37.537,149.353
-0.208,-1.060,0.166,14.954,37.903,158.081
-0.169,-1.021,0.139,8.545,37.415,165.344
-0.128,-0.988,0.132,3.052,36.072,170.532
-0.097,-0.959,0.135,-1.099,35.156,173.035
-0.067,-0.950,0.147,-4.333,34.546,173.645
-0.039,-0.961,0.169,-6.470,33.997,173.767
-0.024,-1.001,0.189,-8.179,34.668,174.072
-0.037,-1.060,0.199,-9.827,36.926,175.537
-0.053,-1.105,0.197,-12.878,39.185,180.847
-0.057,-1.131,0.201,-16.357,41.992,191.650
-0.058,-1.137,0.205,-20.386,44.617,204.895
-0.042,-1.140,0.209,-24.353,47.607,220.215
-0.020,-1.107,0.212,-28.076,52.673,236.023
0.011,-1.038,0.207,-31.860,57.861,251.038
0.043,-0.989,0.187,-35.156,61.218,264.221
0.069,-1.000,0.180,-37.598,63.782,276.367
0.048,-1.053,0.180,-38.574,66.162,289.062
-0.024,-1.073,0.169,-36.987,68.298,305.481
-0.054,-0.995,0.152,-32.837,66.162,329.895
-0.001,-0.809,0.155,-26.367,58.228,359.009
0.127,-0.568,0.162,-18.555,49.744,381.287
0.256,-0.352,0.160,-10.498,44.922,390.442
0.364,-0.190,0.168,-1.465,39.978,387.756

-2.458,-0.933,0.070,-211.609,-163.940,-597.778
-2.600,-1.423,0.611,-228.699,-181.091,-550.171
-2.590,-2.023,1.188,-230.225,-180.420,-482.971
-2.534,-2.670,1.606,-216.553,-155.334,-399.353
-2.455,-3.201,1.825,-193.665,-107.239,-299.500
-2.302,-3.300,1.870,-168.945,-44.128,-184.570
-2.082,-2.987,1.632,-139.038,19.958,-70.923
-1.813,-2.437,1.189,-103.149,65.430,18.982
-1.494,-1.835,0.782,-67.993,76.172,75.623
-1.159,-1.398,0.541,-38.147,55.237,99.121
-0.862,-1.177,0.443,-13.489,20.508,96.497
-0.628,-1.122,0.413,6.775,-14.221,80.078
-0.445,-1.167,0.396,23.499,-40.710,61.401
-0.321,-1.237,0.401,34.180,-54.565,46.204
-0.227,-1.273,0.421,41.016,-55.786,37.109
-0.150,-1.278,0.433,46.509,-47.974,33.386
-0.115,-1.279,0.422,50.110,-36.133,33.813
-0.127,-1.271,0.403,49.866,-21.545,38.025
-0.148,-1.230,0.370,44.983,-3.601,45.654
-0.171,-1.167,0.325,37.415,14.038,54.688
-0.196,-1.102,0.272,29.724,28.259,62.683
-0.230,-1.059,0.245,24.170,36.682,67.444
-0.257,-1.028,0.237,21.240,39.063,68.970
-0.277,-1.015,0.246,21.179,37.109,68.237
-0.328,-1.043,0.275,22.949,33.630,65.552
-0.385,-1.095,0.305,24.170,31.128,63.049
-0.446,-1.155,0.341,24.353,29.785,63.293
-0.491,-1.187,0.372,25.024,28.748,68.115
-0.518,-1.199,0.398,26.306,27.222,76.233
-0.533,-1.206,0.413,27.222,26.672,85.693
-0.524,-1.202,0.417,27.954,27.832,96.802
-0.508,-1.187,0.421,28.564,30.090,108.032
-0.490,-1.176,0.413,28.809,34.729,118.408
-0.467,-1.177,0.379,29.297,40.466,127.686
-0.459,-1.187,0.324,30.945,44.678,137.085
-0.445,-1.170,0.276,32.349,47.241,148.071
-0.414,-1.127,0.234,32.410,47.485,159.424
-0.382,-1.104,0.206,31.311,45.776,169.067
-0.357,-1.095,0.182,28.198,43.335,176.819
-0.333,-1.115,0.157,24.170,40.894,184.692
-0.317,-1.131,0.142,20.325,38.147,193.359
-0.294,-1.133,0.146,16.418,36.621,203.918
-0.265,-1.109,0.166,10.986,36.316,215.088
-0.226,-1.075,0.179,4.944,37.964,226.318
-0.180,-1.032,0.184,-1.526,41.260,236.877
-0.130,-1.005,0.181,-7.385,45.837,245.605
-0.087,-0.967,0.163,-12.756,50.598,251.953
-0.045,-0.942,0.134,-15.808,53.833,257.507
-0.003,-0.941,0.111,-17.273,54.626,262.146
0.013,-0.939,0.088,-18.677,55.054,266.602
0.047,-0.885,0.080,-21.606,54.626,272.461
0.105,-0.813,0.090,-23.987,51.880,279.175
0.158,-0.735,0.088,-26.062,48.828,283.508
0.215,-0.673,0.084,-29.541,47.485,285.461
0.275,-0.623,0.091,-34.180,46.936,286.011
0.321,-0.578,0.097,-38.086,47.668,285.095
0.355,-0.577,0.098,-40.710,50.232,282.715
0.363,-0.581,0.100,-41.382,53.589,280.884
0.367,-0.552,0.083,-39.612,55.603,281.433
0.387,-0.516,0.051,-34.363,54.077,284.363

-0.106,1.696,-1.349,72.144,67.261,-488.464
-0.237,1.838,-1.582,19.958,20.752,-545.105
-0.528,1.931,-1.442,-44.556,-31.982,-609.497
-1.105,1.883,-0.906,-114.380,-75.012,-687.561
-1.840,1.602,-0.187,-194.519,-101.685,-778.442
-2.647,0.807,0.484,-241.089,-119.446,-853.271
-3.324,-0.580,1.079,-217.896,-145.264,-885.803
-3.782,-2.206,1.206,-115.417,-189.270,-858.948
-3.708,-3.624,0.770,27.649,-235.535,-759.216
-3.418,-4.000,0.419,121.765,-246.338,-613.464
-3.331,-4.000,0.488,107.117,-190.430,-435.730
-3.061,-4.000,0.700,13.916,-91.187,-223.633
-2.419,-4.000,0.589,-84.229,12.024,-15.991
-1.758,-3.182,0.229,-143.066,84.534,131.592
-1.209,-2.344,-0.099,-154.541,108.948,205.933
-0.742,-1.706,-0.220,-132.446,90.576,225.281
-0.304,-1.235,-0.110,-95.825,50.537,210.937
0.021,-1.005,0.032,-54.504,12.878,174.927
0.197,-0.974,0.084,-15.564,-5.066,131.409
0.305,-0.993,0.053,13.428,-9.888,94.360
0.367,-1.001,-0.010,34.424,-10.620,68.176
0.404,-0.965,-0.003,45.837,-8.972,49.866
0.417,-0.933,0.026,51.636,-4.639,34.790
0.362,-0.951,0.056,52.917,1.709,20.813
0.281,-1.003,0.068,48.706,12.512,10.376
0.181,-1.068,0.041,38.635,27.649,5.188
0.095,-1.101,0.016,23.071,42.664,6.775
0.024,-1.118,0.023,6.165,53.162,12.512
-0.031,-1.135,0.058,-8.606,60.059,19.653
-0.089,-1.195,0.106,-20.813,65.186,26.550
-0.151,-1.246,0.159,-26.855,68.848,33.325
-0.177,-1.259,0.207,-26.550,69.153,41.687
-0.189,-1.227,0.211,-20.020,66.956,50.171
-0.189,-1.186,0.208,-13.611,62.683,56.335
-0.186,-1.163,0.232,-9.705,56.213,60.486
-0.180,-1.170,0.245,-6.836,52.307,64.392
-0.171,-1.163,0.235,-2.808,52.124,68.542
-0.140,-1.127,0.202,2.563,52.429,73.303
-0.106,-1.096,0.155,8.484,50.964,77.576
-0.097,-1.085,0.131,11.719,47.180,80.688
-0.105,-1.104,0.102,11.719,44.250,84.839
-0.088,-1.116,0.083,9.277,44.312,91.980
-0.065,-1.116,0.066,6.287,44.983,100.220
-0.048,-1.137,0.063,3.967,44.983,107.910
-0.035,-1.146,0.046,1.770,45.593,115.784
-0.023,-1.174,0.021,-1.282,46.082,123.535
-0.017,-1.219,-0.000,-4.822,46.021,131.470
-0.017,-1.250,-0.009,-7.935,45.593,140.625
-0.005,-1.231,-0.011,-10.376,42.969,151.306
0.020,-1.210,-0.004,-12.817,37.292,162.659
0.039,-1.226,0.009,-15.198,31.433,173.340
0.040,-1.237,0.031,-19.470,28.564,183.960
0.046,-1.233,0.052,-24.963,28.442,195.984
0.047,-1.219,0.063,-29.785,30.518,209.351
0.043,-1.198,0.052,-32.898,32.288,224.060
0.050,-1.121,0.048,-33.875,33.142,240.723
0.082,-1.027,0.045,-33.386,31.006,257.446
0.123,-0.922,0.040,-32.410,26.672,273.254
0.185,-0.802,0.040,-32.593,21.973,286.377
0.247,-0.692,0.044,-32.898,17.883,294.983

1.175,1.060,0.216,22.095,47.363,-186.096
1.030,1.084,0.117,29.236,60.852,-238.525
0.878,1.111,-0.003,32.837,73.425,-290.649
0.675,1.015,-0.199,31.250,80.994,-341.858
0.458,0.861,-0.409,20.508,82.764,-384.460
0.237,0.704,-0.556,2.930,74.585,-414.856
0.016,0.562,-0.688,-14.282,53.467,-432.312
-0.134,0.464,-0.680,-34.729,17.090,-437.805
-0.223,0.410,-0.596,-59.570,-20.996,-438.110
-0.305,0.348,-0.546,-82.092,-50.354,-444.031
-0.414,0.290,-0.496,-103.882,-68.787,-460.693
-0.550,0.111,-0.355,-126.404,-83.923,-484.924
-0.692,-0.030,-0.179,-137.939,-96.436,-507.385
-0.862,-0.102,0.012,-129.395,-117.676,-525.208
-1.017,-0.280,0.077,-98.938,-145.447,-542.358
-1.225,-0.634,-0.045,-58.594,-164.734,-559.265
-1.534,-1.080,-0.194,-32.166,-176.208,-563.843
-1.857,-1.460,-0.058,-34.485,-184.998,-542.175
-1.979,-1.734,0.281,-55.908,-184.998,-492.126
-1.925,-1.965,0.650,-80.383,-173.035,-425.964
-1.846,-2.208,0.936,-95.032,-151.978,-355.774
-1.795,-2.445,1.113,-97.412,-119.629,-283.875
-1.706,-2.533,1.170,-93.628,-77.820,-207.336
-1.561,-2.464,1.105,-86.121,-33.936,-129.700
-1.370,-2.236,0.935,-76.050,3.296,-59.875
-1.171,-1.943,0.721,-65.735,26.672,-6.226
-0.969,-1.668,0.526,-56.091,34.180,27.954
-0.759,-1.449,0.380,-44.495,27.527,45.349
-0.551,-1.310,0.316,-29.907,8.606,48.767
-0.365,-1.228,0.332,-14.038,-14.160,42.664
-0.233,-1.203,0.353,0.610,-31.860,31.372
-0.163,-1.228,0.370,11.292,-42.175,19.226
-0.125,-1.274,0.415,15.930,-44.189,11.414
-0.113,-1.342,0.465,18.616,-38.269,8.850
-0.136,-1.380,0.494,22.156,-28.259,10.925
-0.174,-1.415,0.516,26.794,-17.395,17.883
-0.226,-1.419,0.512,30.457,-5.371,29.602
-0.266,-1.389,0.487,30.457,8.484,44.006
-0.282,-1.305,0.446,28.259,22.522,59.387
-0.287,-1.215,0.410,26.794,33.325,71.594
-0.298,-1.165,0.356,27.344,39.978,77.942
-0.320,-1.161,0.319,30.151,41.016,80.933
-0.357,-1.169,0.275,33.386,39.307,82.886
-0.373,-1.157,0.260,35.889,35.095,86.731
-0.376,-1.144,0.267,39.673,27.466,92.041
-0.376,-1.129,0.269,43.396,20.508,97.961
-0.370,-1.111,0.261,44.250,17.029,104.187
-0.343,-1.070,0.260,42.419,15.808,111.023
-0.340,-1.016,0.265,39.368,14.404,117.798
-0.309,-0.956,0.251,35.889,13.855,124.512
-0.254,-0.908,0.229,32.471,13.733,131.042
-0.198,-0.884,0.212,29.236,14.526,135.010
-0.145,-0.864,0.195,25.391,17.273,136.536
-0.109,-0.875,0.167,22.583,20.325,135.437
-0.091,-0.899,0.151,21.301,21.851,133.606
-0.080,-0.928,0.144,20.325,21.912,131.836
-0.077,-0.982,0.139,18.311,21.484,131.775
-0.073,-1.024,0.139,14.893,21.423,134.216
-0.063,-1.057,0.148,9.644,22.339,139.343
-0.046,-1.070,0.168,3.662,24.414,146.240

-2.208,-1.103,0.365,-88.989,-132.019,-643.799
-2.526,-2.040,0.579,-115.662,-118.652,-612.793
-2.705,-2.855,1.035,-141.907,-96.252,-540.222
-2.658,-3.537,1.496,-148.743,-71.350,-427.856
-2.416,-3.820,1.771,-134.155,-37.720,-290.466
-2.150,-3.657,1.835,-108.093,3.845,-151.123
-1.894,-3.174,1.649,-77.698,45.105,-29.541
-1.638,-2.567,1.239,-53.955,81.726,62.805
-1.302,-1.965,0.809,-42.603,104.004,121.399
-0.906,-1.474,0.500,-31.433,101.135,147.522
-0.528,-1.159,0.332,-11.108,74.158,145.935
-0.253,-1.022,0.246,16.724,36.560,124.329
-0.114,-0.995,0.220,44.617,2.625,94.666
-0.018,-1.014,0.223,63.965,-19.287,67.993
0.032,-1.032,0.239,71.655,-27.832,48.218
0.050,-1.046,0.265,70.679,-24.170,35.461
0.047,-1.076,0.272,66.101,-13.733,27.649
0.010,-1.108,0.258,62.134,-3.296,24.475
-0.029,-1.113,0.260,57.434,5.310,26.611
-0.055,-1.127,0.247,51.941,14.038,31.738
-0.091,-1.125,0.223,45.288,22.461,38.330
-0.114,-1.099,0.215,38.330,29.541,45.532
-0.134,-1.057,0.210,31.433,34.668,51.697
-0.139,-1.033,0.209,25.696,37.415,55.908
-0.151,-1.004,0.218,22.339,36.804,57.800
-0.166,-0.995,0.217,21.301,33.447,57.556
-0.201,-1.034,0.220,21.851,29.114,55.725
-0.234,-1.068,0.231,21.912,25.085,55.420
-0.272,-1.081,0.270,22.278,21.973,57.617
-0.283,-1.094,0.296,23.560,20.203,61.890
-0.303,-1.150,0.268,24.353,20.874,67.078
-0.337,-1.213,0.237,23.743,23.437,73.792
-0.355,-1.239,0.221,23.376,25.269,83.862
-0.370,-1.242,0.193,24.536,25.024,96.130
-0.342,-1.200,0.148,26.611,23.071,109.558
-0.301,-1.141,0.104,29.541,16.785,121.216
-0.265,-1.116,0.079,32.043,5.981,129.395
-0.255,-1.154,0.067,31.311,-5.859,135.742
-0.263,-1.222,0.058,26.794,-15.869,143.433
-0.272,-1.302,0.081,20.813,-24.231,154.907
-0.280,-1.383,0.122,13.855,-28.503,170.349
-0.296,-1.439,0.156,6.409,-27.588,189.392
-0.310,-1.479,0.178,-0.366,-24.536,212.036
-0.327,-1.489,0.177,-7.263,-20.691,237.427
-0.354,-1.487,0.169,-15.381,-16.724,265.930
-0.387,-1.466,0.205,-24.780,-12.756,298.035
-0.386,-1.395,0.247,-34.729,-6.348,332.825
-0.342,-1.236,0.259,-46.387,2.869,368.408
-0.269,-1.039,0.234,-60.669,14.648,400.574
-0.183,-0.837,0.201,-78.186,27.527,424.988
-0.087,-0.619,0.161,-96.497,40.283,442.688
0.033,-0.408,0.139,-114.502,51.819,453.186
0.171,-0.217,0.154,-127.502,63.049,455.505
0.326,-0.003,0.195,-130.798,72.815,449.158
0.512,0.207,0.215,-119.568,79.041,432.556
0.669,0.374,0.200,-93.872,78.796,403.015
0.781,0.492,0.180,-61.768,71.533,364.563
0.865,0.575,0.190,-29.724,59.753,321.655
0.940,0.610,0.151,0.366,48.584,276.978
0.994,0.637,0.093,24.658,38.696,233.032

-2.999,-2.567,0.365,-5.981,-118.408,-754.272
-3.248,-3.528,0.660,-23.499,-103.455,-660.034
-3.196,-4.000,1.057,-33.447,-94.727,-497.986
-2.807,-4.000,1.539,-47.852,-61.829,-296.265
-2.384,-3.976,1.698,-64.453,19.226,-101.257
-2.093,-3.237,1.284,-60.913,112.549,46.814
-1.883,-2.459,0.657,-43.762,166.077,146.667
-1.562,-1.799,0.171,-27.588,169.006,206.177
-1.139,-1.318,-0.093,-12.268,137.634,228.394
-0.719,-1.018,-0.219,6.531,91.614,216.980
-0.411,-0.924,-0.226,31.982,40.649,182.068
-0.248,-0.969,-0.170,57.617,-7.263,140.381
-0.218,-1.054,-0.061,76.355,-44.312,108.276
-0.175,-1.059,0.036,84.229,-61.523,91.125
-0.079,-1.036,0.036,85.144,-62.073,83.679
-0.006,-1.001,0.010,79.041,-57.007,79.224
0.034,-0.978,0.029,68.237,-51.514,75.806
0.068,-0.969,0.069,56.274,-45.471,73.059
0.083,-0.973,0.107,44.983,-37.598,71.106
0.099,-0.982,0.128,35.034,-27.466,70.190
0.090,-1.002,0.135,26.672,-17.944,69.214
0.062,-1.046,0.145,19.592,-10.803,68.970
0.023,-1.089,0.156,13.611,-5.310,70.251
-0.008,-1.110,0.174,10.132,-0.977,72.632
-0.025,-1.111,0.190,9.521,3.113,75.012
-0.020,-1.092,0.192,11.597,6.042,75.623
-0.042,-1.066,0.171,15.564,4.395,74.585
-0.057,-1.080,0.173,18.005,0.793,72.754
-0.069,-1.108,0.189,17.334,-2.136,71.838
-0.093,-1.161,0.203,15.076,-3.418,72.021
-0.123,-1.226,0.205,12.451,-2.319,75.012
-0.160,-1.305,0.196,9.705,0.183,82.031
-0.204,-1.382,0.176,5.066,3.113,93.140
-0.259,-1.450,0.184,-2.625,7.080,109.131
-0.290,-1.504,0.220,-11.719,12.085,129.822
-0.307,-1.516,0.244,-18.799,19.165,153.809
-0.306,-1.470,0.230,-22.400,26.367,179.626
-0.278,-1.388,0.165,-24.841,30.945,205.078
-0.240,-1.342,0.095,-29.724,31.128,228.333
-0.213,-1.316,0.031,-39.917,30.457,249.451
-0.202,-1.333,0.012,-56.458,32.410,270.081
-0.242,-1.354,0.031,-77.881,38.757,291.382
-0.282,-1.333,0.053,-102.112,49.622,316.956
-0.291,-1.239,0.044,-125.977,63.354,348.450
-0.261,-1.082,-0.009,-150.696,77.698,381.653
-0.225,-0.950,-0.078,-176.392,92.285,411.682
-0.174,-0.800,-0.111,-203.430,107.056,437.561
-0.121,-0.620,-0.096,-222.961,120.728,458.801
-0.055,-0.423,-0.037,-227.905,130.981,472.534
0.062,-0.219,0.014,-217.163,137.390,477.600
0.196,-0.030,0.013,-193.420,138.123,472.412
0.321,0.142,-0.018,-160.889,131.714,456.970
0.437,0.279,-0.028,-124.146,116.943,433.105
0.532,0.397,-0.017,-85.571,97.046,402.710
0.599,0.490,-0.000,-48.645,76.416,368.225
0.664,0.582,-0.006,-18.005,57.922,331.909
0.737,0.663,-0.045,4.578,41.748,296.082
0.791,0.719,-0.110,19.287,27.710,261.292
0.838,0.759,-0.160,24.841,16.235,228.394
0.886,0.803,-0.152,21.118,7.935,197.937

-1.251,0.842,-0.521,62.134,76.050,-733.032
-1.599,0.483,-0.408,1.343,78.979,-756.714
-2.045,-0.068,-0.341,-59.326,89.966,-769.897
-2.413,-0.814,-0.256,-111.572,95.703,-757.812
-2.560,-1.540,-0.063,-161.621,84.595,-707.764
-2.756,-2.496,0.236,-195.435,66.467,-623.352
-2.688,-3.319,0.646,-204.224,48.401,-495.056
-2.358,-3.762,1.056,-188.049,38.025,-331.055
-1.952,-3.716,1.066,-149.841,59.448,-167.419
-1.682,-3.115,0.769,-109.802,107.544,-33.813
-1.533,-2.295,0.340,-72.449,142.578,56.519
-1.349,-1.537,-0.068,-42.908,144.836,103.638
-1.088,-0.953,-0.306,-24.597,115.967,112.610
-0.854,-0.682,-0.309,-16.052,72.449,88.745
-0.753,-0.704,-0.177,-11.108,29.663,45.593
-0.755,-0.895,0.013,-4.089,-1.404,4.089
-0.730,-1.134,0.097,10.376,-18.555,-21.790
-0.738,-1.351,0.122,26.672,-26.917,-30.823
-0.721,-1.482,0.136,37.598,-27.893,-24.170
-0.680,-1.508,0.122,42.603,-22.888,-5.798
-0.604,-1.431,0.099,42.114,-14.893,18.494
-0.510,-1.294,0.050,38.574,-6.042,42.725
-0.423,-1.159,-0.026,32.898,1.099,61.340
-0.345,-1.051,-0.094,24.597,5.493,72.754
-0.280,-0.966,-0.112,14.954,7.507,77.698
-0.197,-0.889,-0.114,7.690,8.118,76.477
-0.141,-0.855,-0.118,4.272,6.165,68.420
-0.111,-0.867,-0.117,5.920,1.221,56.152
-0.106,-0.905,-0.089,10.010,-5.554,43.701
-0.121,-0.971,-0.034,14.038,-12.756,32.471
-0.159,-1.056,0.014,16.235,-17.090,24.231
-0.208,-1.148,0.067,15.503,-17.334,20.813
-0.245,-1.215,0.113,12.695,-15.991,22.888
-0.292,-1.315,0.132,8.850,-14.160,29.968
-0.342,-1.387,0.113,3.357,-10.010,40.894
-0.375,-1.441,0.109,-2.441,-6.897,57.617
-0.395,-1.439,0.121,-8.362,-5.676,77.393
-0.403,-1.390,0.186,-12.512,-3.601,97.473
-0.363,-1.305,0.229,-12.390,0.671,115.723
-0.306,-1.240,0.212,-7.996,6.104,129.211
-0.272,-1.205,0.178,-3.357,9.644,137.512
-0.276,-1.204,0.127,0.671,12.024,142.334
-0.267,-1.191,0.076,4.639,13.611,147.156
-0.249,-1.166,0.030,9.460,11.597,153.137
-0.222,-1.151,-0.000,13.123,5.615,158.997
-0.197,-1.154,-0.019,14.099,-1.526,164.673
-0.175,-1.143,-0.019,13.245,-8.606,171.509
-0.147,-1.133,-0.008,10.498,-14.343,179.199
-0.128,-1.125,0.003,5.432,-16.479,187.378
-0.104,-1.094,0.008,-2.014,-14.709,196.777
-0.078,-1.078,0.024,-10.864,-10.376,207.092
-0.066,-1.073,0.075,-19.897,-4.883,217.896
-0.077,-1.078,0.124,-24.048,3.296,228.271
-0.034,-1.075,0.164,-21.729,11.353,239.136
0.037,-1.062,0.228,-15.442,19.653,247.375
0.044,-0.987,0.229,-4.944,27.710,253.113
0.057,-0.936,0.189,8.179,30.823,258.850
0.078,-0.934,0.162,18.005,30.151,266.418
0.044,-1.011,0.149,22.400,30.151,275.513
-0.007,-1.078,0.088,24.475,31.616,289.307

-0.764,1.448,-1.006,110.413,-72.510,-700.623
-1.165,1.347,-0.864,116.028,-103.699,-760.437
-1.589,1.162,-0.828,119.812,-115.784,-822.144
-2.156,0.844,-0.771,115.784,-126.709,-871.765
-2.714,0.188,-0.696,100.647,-135.559,-899.536
-3.186,-0.814,-0.734,72.327,-134.399,-889.404
-3.427,-1.953,-0.520,20.325,-128.296,-824.768
-3.459,-3.137,0.009,-43.274,-117.737,-701.538
-3.206,-3.958,0.605,-106.445,-80.383,-528.748
-2.869,-4.000,1.267,-155.823,-18.066,-331.970
-2.466,-3.743,1.462,-177.979,68.359,-139.709
-2.141,-2.957,0.887,-162.354,155.334,13.794
-1.931,-2.225,0.160,-134.583,199.768,111.389
-1.591,-1.550,-0.358,-117.859,194.946,162.048
-1.141,-1.016,-0.532,-102.234,150.208,174.072
-0.758,-0.724,-0.359,-77.820,81.665,150.879
-0.515,-0.721,-0.134,-44.312,15.991,104.309
-0.429,-0.889,-0.001,-9.766,-28.015,54.932
-0.421,-1.098,0.052,17.029,-52.856,19.287
-0.404,-1.229,0.107,30.701,-62.256,3.906
-0.361,-1.281,0.146,34.119,-60.242,4.211
-0.304,-1.286,0.177,31.494,-50.903,12.756
-0.274,-1.283,0.192,26.855,-37.903,24.170
-0.258,-1.289,0.180,22.339,-22.156,37.048
-0.259,-1.284,0.156,16.418,-5.676,51.392
-0.253,-1.245,0.117,8.850,10.376,67.444
-0.235,-1.186,0.070,0.977,24.170,82.153
-0.214,-1.116,0.021,-5.371,33.875,92.834
-0.196,-1.055,-0.030,-9.277,39.307,97.900
-0.193,-1.013,-0.066,-9.705,38.879,97.595
-0.196,-0.993,-0.047,-7.263,32.104,92.529
-0.213,-0.996,0.003,-2.014,22.095,84.839
-0.240,-1.046,0.048,5.737,12.817,76.355
-0.283,-1.127,0.071,13.977,6.226,69.275
-0.342,-1.218,0.091,20.325,1.770,66.833
-0.386,-1.282,0.111,23.499,-0.427,71.167
-0.405,-1.321,0.133,22.705,-0.793,81.421
-0.409,-1.341,0.142,19.653,0.854,94.788
-0.411,-1.352,0.145,15.991,5.188,110.596
-0.407,-1.323,0.120,12.817,10.315,127.380
-0.380,-1.265,0.093,8.301,14.893,144.226
-0.339,-1.206,0.074,2.380,17.944,158.936
-0.302,-1.147,0.074,-3.906,19.531,171.021
-0.256,-1.094,0.072,-8.911,21.362,179.687
-0.197,-1.061,0.082,-11.841,22.827,186.218
-0.147,-1.040,0.082,-12.390,24.231,190.430
-0.110,-1.047,0.062,-11.536,26.245,192.627
-0.080,-1.046,0.045,-9.766,26.733,194.885
-0.051,-1.054,0.034,-7.751,25.208,198.059
-0.042,-1.096,0.033,-6.836,23.132,202.148
-0.039,-1.112,0.048,-8.118,22.339,208.801
-0.023,-1.086,0.064,-10.986,22.217,218.628
0.003,-1.044,0.062,-15.503,23.499,229.797
0.043,-1.030,0.048,-24.536,26.733,240.234
0.057,-1.044,0.032,-36.499,32.959,249.939
0.056,-1.039,0.016,-49.072,40.771,261.475
0.079,-0.999,0.020,-59.570,47.791,274.963
0.123,-0.938,0.032,-67.322,53.223,288.452
0.163,-0.876,0.023,-71.960,58.105,299.255
0.209,-0.795,0.007,-74.951,61.157,308.655

1.053,1.139,0.269,-14.038,44.006,-197.510
0.905,1.122,0.250,0.183,67.444,-254.578
0.724,1.138,0.188,25.635,83.984,-310.547
0.567,1.161,0.073,55.481,87.524,-361.145
0.413,1.192,-0.085,80.078,81.238,-406.372
0.227,1.201,-0.265,93.811,69.641,-449.707
0.043,1.172,-0.417,99.243,58.899,-491.272
-0.151,1.113,-0.618,97.473,52.063,-530.823
-0.366,1.004,-0.768,86.792,43.030,-568.542
-0.568,0.816,-0.809,67.444,28.137,-599.854
-0.755,0.658,-0.756,43.823,11.780,-619.446
-0.918,0.573,-0.650,22.034,-4.089,-630.798
-1.079,0.355,-0.403,10.315,-20.447,-642.273
-1.299,-0.191,-0.083,15.198,-30.945,-658.569
-1.564,-0.971,0.078,37.659,-27.893,-672.668
-1.835,-1.733,0.023,68.237,-22.583,-663.757
-2.070,-2.384,-0.111,97.412,-32.959,-609.680
-2.211,-2.949,-0.122,99.365,-43.762,-514.099
-2.204,-3.373,-0.007,56.030,-31.067,-390.564
-2.061,-3.510,0.093,-17.578,12.146,-253.662
-1.870,-3.304,0.054,-89.844,72.205,-125.488
-1.607,-2.866,-0.049,-130.981,111.267,-19.836
-1.316,-2.392,-0.133,-133.911,111.267,53.772
-1.027,-1.984,-0.179,-111.755,85.266,92.712
-0.812,-1.717,-0.207,-79.041,48.706,104.065
-0.619,-1.555,-0.225,-49.255,16.479,100.037
-0.459,-1.452,-0.230,-26.855,-8.118,90.576
-0.326,-1.358,-0.232,-10.376,-25.879,83.191
-0.199,-1.249,-0.230,-0.183,-37.231,79.102
-0.070,-1.143,-0.229,3.662,-42.969,76.843
0.033,-1.053,-0.232,3.235,-44.189,73.730
0.116,-0.984,-0.217,0.549,-42.542,69.397
0.185,-0.940,-0.183,-2.502,-40.161,63.660
0.223,-0.920,-0.146,-3.540,-37.354,57.312
0.239,-0.925,-0.108,-4.517,-33.936,51.086
0.237,-0.945,-0.077,-5.249,-29.968,45.959
0.222,-0.980,-0.053,-5.981,-25.879,42.114
0.191,-1.026,-0.037,-7.629,-21.057,39.551
0.161,-1.071,-0.021,-10.376,-15.747,38.147
0.117,-1.098,-0.000,-12.329,-11.047,37.476
0.083,-1.105,0.028,-12.207,-8.667,37.720
0.060,-1.109,0.055,-10.071,-8.545,38.269
0.044,-1.139,0.081,-8.057,-8.423,37.842
0.003,-1.191,0.093,-6.714,-7.080,36.987
-0.036,-1.215,0.089,-5.493,-4.578,38.147
-0.064,-1.234,0.082,-3.906,-2.014,42.175
-0.084,-1.261,0.073,-2.808,0.000,48.218
-0.100,-1.308,0.060,-3.357,2.136,55.969
-0.116,-1.366,0.052,-5.615,5.371,65.369
-0.152,-1.399,0.036,-8.301,9.338,76.660
-0.168,-1.397,0.024,-11.108,11.963,90.942
-0.166,-1.367,0.022,-14.282,12.878,107.788
-0.150,-1.339,0.026,-17.517,11.902,124.573
-0.130,-1.300,0.021,-20.264,11.169,140.808
-0.091,-1.239,0.018,-22.400,10.986,156.433
-0.039,-1.181,0.022,-23.560,10.803,169.556
-0.003,-1.135,0.015,-24.475,11.841,179.321
0.034,-1.099,0.021,-24.475,13.550,187.012
0.067,-1.039,0.020,-23.437,13.672,193.787
0.116,-0.985,0.020,-21.973,12.817,199.280

-1.613,1.299,-0.166,219.299,48.035,-825.562
-2.267,0.645,-0.172,208.435,67.383,-880.798
-2.977,-0.355,-0.338,192.017,94.971,-915.894
-3.503,-1.604,-0.869,161.011,120.972,-902.649
-3.600,-2.968,-1.327,110.535,109.192,-810.486
-3.560,-4.000,-1.246,40.710,65.918,-646.301
-3.350,-4.000,-0.633,-65.369,50.659,-429.321
-2.763,-4.000,-0.027,-176.880,83.679,-192.566
-2.049,-3.561,0.217,-238.525,129.944,0.977
-1.522,-2.690,0.090,-227.539,145.203,115.845
-1.155,-2.040,-0.144,-176.208,123.779,160.522
-0.855,-1.633,-0.261,-115.906,79.468,157.043
-0.651,-1.398,-0.301,-60.059,29.846,128.052
-0.469,-1.300,-0.271,-20.691,-10.925,91.797
-0.333,-1.308,-0.201,0.000,-39.612,57.800
-0.282,-1.370,-0.114,9.827,-55.542,33.081
-0.242,-1.397,-0.047,15.015,-58.411,22.217
-0.187,-1.361,0.011,18.372,-53.833,22.095
-0.116,-1.296,0.021,21.606,-46.021,26.611
-0.066,-1.234,0.008,23.071,-38.513,32.227
-0.031,-1.190,0.012,21.301,-32.166,38.086
-0.007,-1.146,-0.004,16.479,-23.682,43.945
0.017,-1.115,-0.036,10.132,-14.282,50.049
0.036,-1.081,-0.062,4.272,-6.958,55.542
0.058,-1.028,-0.072,0.000,-1.465,59.082
0.078,-0.981,-0.081,-1.465,2.563,58.533
0.083,-0.960,-0.093,-0.427,4.395,53.467
0.070,-0.959,-0.090,2.197,3.662,45.532
0.044,-0.972,-0.069,5.554,1.770,36.560
0.002,-1.010,-0.052,9.338,-0.488,27.588
-0.046,-1.077,-0.036,12.939,-2.930,21.362
-0.106,-1.152,-0.021,13.428,-3.540,18.555
-0.158,-1.208,-0.018,10.986,-2.930,20.386
-0.194,-1.245,-0.019,7.385,-1.770,27.100
-0.223,-1.266,-0.002,2.991,-0.366,37.231
-0.227,-1.265,0.008,-1.343,2.075,49.255
-0.219,-1.233,0.026,-4.395,6.165,62.073
-0.175,-1.163,0.032,-5.493,10.620,74.036
-0.121,-1.102,-0.011,-3.662,12.878,82.214
-0.074,-1.058,-0.044,-0.366,11.597,86.731
-0.050,-1.021,-0.052,1.404,7.446,87.463
-0.039,-1.023,-0.069,3.174,3.418,85.754
-0.019,-1.034,-0.086,4.944,-0.366,84.534
-0.012,-1.056,-0.103,5.249,-4.639,83.496
-0.011,-1.081,-0.118,3.601,-9.644,83.679
-0.010,-1.106,-0.130,-0.366,-14.954,86.060
-0.019,-1.147,-0.128,-7.019,-20.264,90.576
-0.029,-1.190,-0.093,-17.334,-23.621,97.595
-0.045,-1.234,-0.040,-29.114,-23.315,107.361
-0.060,-1.280,0.013,-39.978,-18.799,119.324
-0.065,-1.297,0.044,-48.584,-11.230,133.789
-0.054,-1.283,0.051,-52.551,-4.028,150.635
-0.029,-1.250,0.038,-53.955,0.671,167.786
0.005,-1.189,0.025,-55.176,3.235,184.143
0.049,-1.129,0.021,-57.190,3.967,198.120
0.091,-1.089,0.025,-60.181,3.967,208.862
0.120,-1.068,0.031,-64.819,6.165,217.346
0.144,-1.052,0.045,-70.496,10.254,224.487
0.155,-1.058,0.052,-76.538,14.526,232.117
0.158,-1.071,0.051,-83.435,19.470,241.699

0.652,1.652,0.132,143.066,-5.981,-445.618
0.322,1.645,0.021,153.137,4.395,-529.114
-0.116,1.590,-0.214,161.865,16.663,-611.206
-0.526,1.506,-0.465,171.997,17.944,-686.829
-0.928,1.395,-0.668,177.002,5.310,-756.165
-1.420,1.146,-0.846,174.622,-15.625,-819.214
-1.974,0.678,-0.920,161.316,-37.598,-869.385
-2.429,-0.243,-0.721,137.695,-50.110,-893.799
-2.722,-1.463,-0.380,109.741,-43.457,-881.287
-2.852,-2.230,-0.262,81.116,-22.095,-816.345
-2.833,-2.740,-0.379,62.988,-17.578,-702.332
-2.658,-3.248,-0.446,31.738,-25.940,-559.204
-2.403,-3.518,-0.255,-34.180,-23.804,-396.179
-2.106,-3.282,0.104,-120.789,8.484,-233.459
-1.723,-2.759,0.375,-193.726,70.984,-98.938
-1.324,-2.298,0.460,-218.628,123.718,-6.775
-1.008,-1.971,0.322,-191.895,142.761,42.725
-0.826,-1.758,0.053,-138.672,130.249,58.960
-0.729,-1.624,-0.127,-80.322,92.712,58.228
-0.622,-1.456,-0.168,-32.654,46.204,54.504
-0.464,-1.294,-0.133,-1.953,7.874,49.194
-0.322,-1.200,-0.064,13.550,-16.479,40.649
-0.202,-1.131,0.045,17.578,-28.625,31.067
-0.112,-1.083,0.163,18.311,-30.151,22.766
-0.043,-1.066,0.198,21.301,-24.048,15.625
-0.024,-1.092,0.155,26.123,-16.113,10.620
-0.038,-1.134,0.100,27.954,-9.460,9.705
-0.062,-1.165,0.077,24.231,-2.991,14.099
-0.079,-1.158,0.072,17.151,5.066,22.461
-0.082,-1.136,0.056,9.216,14.771,32.166
-0.081,-1.087,0.041,2.258,22.766,40.710
-0.090,-1.040,0.020,-1.587,26.794,45.410
-0.102,-1.000,0.009,-2.625,27.100,46.204
-0.122,-0.989,0.008,-2.014,24.536,43.396
-0.148,-0.993,0.002,-0.427,20.203,38.391
-0.182,-1.013,0.015,2.563,14.771,33.386
-0.209,-1.030,0.050,5.249,9.399,29.419
-0.219,-1.057,0.068,8.606,5.615,26.794
-0.247,-1.090,0.065,11.230,3.845,25.818
-0.264,-1.123,0.066,11.963,2.686,27.527
-0.274,-1.152,0.071,10.437,3.357,31.494
-0.270,-1.178,0.071,7.507,6.042,37.476
-0.278,-1.190,0.062,5.005,9.583,44.556
-0.273,-1.198,0.049,3.906,11.353,53.284
-0.246,-1.197,0.036,2.930,12.451,62.439
-0.235,-1.178,0.030,1.831,13.306,70.496
-0.204,-1.152,0.022,1.465,12.085,78.369
-0.170,-1.109,0.018,2.136,10.132,84.412
-0.126,-1.056,0.009,3.784,6.592,88.074
-0.090,-1.029,0.013,6.165,1.892,88.684
-0.063,-1.029,0.027,7.568,-2.136,87.463
-0.048,-1.055,0.039,7.507,-4.150,85.449
-0.058,-1.120,0.044,6.958,-4.211,84.412
-0.086,-1.193,0.046,5.005,-2.625,86.182
-0.107,-1.280,0.058,0.854,0.122,92.224
-0.143,-1.355,0.072,-5.310,4.333,102.722
-0.163,-1.394,0.083,-11.536,9.521,118.591
-0.160,-1.384,0.091,-16.479,14.465,136.902
-0.152,-1.356,0.090,-19.775,18.738,156.128
-0.141,-1.344,0.075,-23.132,22.400,173.950

-1.303,0.708,-0.653,33.691,-140.503,-708.496
-1.647,0.457,-0.423,30.579,-159.973,-747.192
-1.954,0.126,-0.241,24.597,-164.673,-772.400
-2.235,-0.326,-0.185,16.541,-161.011,-781.494
-2.549,-0.956,-0.079,-1.038,-154.785,-769.836
-2.710,-1.762,0.213,-24.658,-143.311,-727.905
-2.717,-2.578,0.576,-51.331,-120.422,-650.513
-2.656,-3.364,0.932,-78.064,-84.229,-536.865
-2.482,-3.832,1.233,-106.201,-32.959,-386.047
-2.190,-3.679,1.402,-129.517,31.494,-211.670
-1.833,-3.111,1.149,-132.690,99.854,-52.368
-1.557,-2.445,0.647,-115.112,143.677,57.617
-1.281,-1.825,0.219,-85.999,147.705,117.554
-1.008,-1.376,-0.048,-53.223,119.446,134.399
-0.764,-1.089,-0.156,-19.836,73.486,122.375
-0.558,-0.932,-0.151,8.423,24.414,93.994
-0.428,-0.900,-0.076,29.541,-15.625,57.678
-0.368,-0.976,0.001,41.138,-40.710,22.522
-0.363,-1.099,0.030,44.800,-50.232,-2.625
-0.365,-1.184,0.053,41.321,-49.561,-14.954
-0.343,-1.227,0.072,36.072,-43.213,-16.052
-0.314,-1.258,0.078,32.166,-35.889,-9.705
-0.302,-1.295,0.063,29.053,-27.161,-0.854
-0.310,-1.316,0.043,25.452,-17.883,10.803
-0.291,-1.279,0.044,21.118,-9.827,25.757
-0.259,-1.215,0.051,16.541,-4.883,39.490
-0.227,-1.144,0.038,12.207,-0.183,49.683
-0.211,-1.070,0.027,8.728,3.235,53.894
-0.205,-1.011,0.026,7.141,4.578,52.490
-0.193,-0.970,0.054,8.484,2.686,46.509
-0.206,-0.954,0.084,12.695,0.366,36.194
-0.225,-0.988,0.078,18.616,-1.221,24.658
-0.259,-1.042,0.079,23.499,-4.150,15.869
-0.289,-1.112,0.097,26.428,-7.874,11.536
-0.318,-1.165,0.103,28.381,-9.827,12.634
-0.337,-1.195,0.107,28.992,-9.827,18.677
